pos,corr_resp,trials.thisRepN,trials.thisTrialN,trials.thisN,trials.thisIndex,trials_2.thisRepN,trials_2.thisTrialN,trials_2.thisN,trials_2.thisIndex,thisRow.t,notes,trial.started,fixation.started,line1.started,line2.started,line3.started,line4.started,fixation.stopped,probe.started,key_resp.started,trial.stopped,key_resp.keys,key_resp.corr,key_resp.rt,key_resp.duration,participant,session,date,expName,psychopyVersion,frameRate,expStart,
-50,x,0,0,0,0,,,,,0.031078999978490174,,0.014279749942943454,0.031078999978490174,1.0246343750040978,1.0246343750040978,1.0246343750040978,1.0246343750040978,1.0327503749867901,1.9937228750204667,1.9937228750204667,2.893185666995123,x,1,0.8774747080169618,None,sharanya,001,2023-10-09_12h22.37.184,sequence learning ,2023.2.1,None,2023-10-09 12h22.55.614670 +0530,
150,v,0,1,1,1,,,,,2.8991781669901684,,2.8942982079461217,2.8991781669901684,3.8890402920078486,3.8890402920078486,3.8890402920078486,3.8890402920078486,3.898189082974568,4.885356124956161,4.885356124956161,5.867655041976832,v,1,0.9803629580419511,None,sharanya,001,2023-10-09_12h22.37.184,sequence learning ,2023.2.1,None,2023-10-09 12h22.55.614670 +0530,
50,c,0,2,2,2,,,,,5.877169249928556,,5.868519000010565,5.877169249928556,6.8615958750015125,6.8615958750015125,6.8615958750015125,6.8615958750015125,6.871380249969661,7.860446041915566,7.860446041915566,8.727398207993247,c,1,0.8594762079883367,None,sharanya,001,2023-10-09_12h22.37.184,sequence learning ,2023.2.1,None,2023-10-09 12h22.55.614670 +0530,
-150,z,0,3,3,3,,,,,8.734525208012201,,8.728274707915261,8.734525208012201,9.722743457998149,9.722743457998149,9.722743457998149,9.722743457998149,9.731678707990795,10.718333291937597,10.718333291937597,11.501158208004199,z,1,0.7800228749401867,None,sharanya,001,2023-10-09_12h22.37.184,sequence learning ,2023.2.1,None,2023-10-09 12h22.55.614670 +0530,
-50,x,1,0,4,0,,,,,11.509997957968153,,11.501990249962546,11.509997957968153,12.504060041974299,12.504060041974299,12.504060041974299,12.504060041974299,12.504060041974299,13.494036042015068,13.494036042015068,14.184717791969888,x,1,0.6839837910374627,None,sharanya,001,2023-10-09_12h22.37.184,sequence learning ,2023.2.1,None,2023-10-09 12h22.55.614670 +0530,
150,v,1,1,5,1,,,,,14.193342583021149,,14.18550233298447,14.193342583021149,15.187470749951899,15.187470749951899,15.187470749951899,15.187470749951899,15.187470749951899,16.17731958301738,16.17731958301738,17.011316500022076,v,1,0.8312939578900114,None,sharanya,001,2023-10-09_12h22.37.184,sequence learning ,2023.2.1,None,2023-10-09 12h22.55.614670 +0530,
50,c,1,2,6,2,,,,,17.01814012497198,,17.0121448750142,17.01814012497198,18.005745416972786,18.005745416972786,18.005745416972786,18.005745416972786,18.014864458004013,19.010703249950893,19.010703249950893,19.868005582946353,c,1,0.8525668330257758,None,sharanya,001,2023-10-09_12h22.37.184,sequence learning ,2023.2.1,None,2023-10-09 12h22.55.614670 +0530,
-150,z,1,3,7,3,,,,,19.877387917018496,,19.868935249978676,19.877387917018496,20.87123116699513,20.87123116699513,20.87123116699513,20.87123116699513,20.87123116699513,21.860710666980594,21.860710666980594,22.61092008301057,z,1,0.7475157920271158,None,sharanya,001,2023-10-09_12h22.37.184,sequence learning ,2023.2.1,None,2023-10-09 12h22.55.614670 +0530,
-50,x,2,0,8,0,,,,,22.616516917012632,,22.611751458025537,22.616516917012632,23.60527133301366,23.60527133301366,23.60527133301366,23.60527133301366,23.61423287494108,24.602397916954942,24.602397916954942,25.278207583003677,x,1,0.6699761250056326,None,sharanya,001,2023-10-09_12h22.37.184,sequence learning ,2023.2.1,None,2023-10-09 12h22.55.614670 +0530,
150,v,2,1,9,1,,,,,25.285333374980837,,25.279051832971163,25.285333374980837,26.27295462496113,26.27295462496113,26.27295462496113,26.27295462496113,26.281440624967217,27.27745762502309,27.27745762502309,28.001013499917462,v,1,0.717532749986276,None,sharanya,001,2023-10-09_12h22.37.184,sequence learning ,2023.2.1,None,2023-10-09 12h22.55.614670 +0530,
50,c,2,2,10,2,,,,,28.010823166929185,,28.001844833022915,28.010823166929185,28.995149708003737,28.995149708003737,28.995149708003737,28.995149708003737,29.004710000008345,29.994162249960937,29.994162249960937,30.86847112502437,c,1,0.8734009580221027,None,sharanya,001,2023-10-09_12h22.37.184,sequence learning ,2023.2.1,None,2023-10-09 12h22.55.614670 +0530,
-150,z,2,3,11,3,,,,,30.877515999949537,,30.869307750021107,30.877515999949537,31.87780183297582,31.87780183297582,31.87780183297582,31.87780183297582,31.89500274998136,32.86812374996953,32.86812374996953,33.594870332977735,z,1,0.7199387090513483,None,sharanya,001,2023-10-09_12h22.37.184,sequence learning ,2023.2.1,None,2023-10-09 12h22.55.614670 +0530,
-50,x,3,0,12,0,,,,,33.60156400001142,,33.59570237493608,33.60156400001142,34.589726291946135,34.589726291946135,34.589726291946135,34.589726291946135,34.59857395791914,35.586085582966916,35.586085582966916,36.44510191702284,x,1,0.8502133339643478,None,sharanya,001,2023-10-09_12h22.37.184,sequence learning ,2023.2.1,None,2023-10-09 12h22.55.614670 +0530,
150,v,3,1,13,1,,,,,36.4519937079167,,36.44593879196327,36.4519937079167,37.438984666951,37.438984666951,37.438984666951,37.438984666951,37.44791524996981,38.44440949999262,38.44440949999262,40.08516379201319,v,1,1.634914958034642,None,sharanya,001,2023-10-09_12h22.37.184,sequence learning ,2023.2.1,None,2023-10-09 12h22.55.614670 +0530,
50,c,3,2,14,2,,,,,40.09434054198209,,40.08600100001786,40.09434054198209,41.088427042006515,41.088427042006515,41.088427042006515,41.088427042006515,41.088427042006515,42.077915792004205,42.077915792004205,43.23461904202122,c,1,1.1524507920257747,None,sharanya,001,2023-10-09_12h22.37.184,sequence learning ,2023.2.1,None,2023-10-09 12h22.55.614670 +0530,
-150,z,3,3,15,3,,,,,43.24392095801886,,43.235391707974486,43.24392095801886,44.228619541972876,44.228619541972876,44.228619541972876,44.228619541972876,44.2386336249765,45.22772216692101,45.22772216692101,46.01844479201827,z,1,0.7874397500418127,None,sharanya,001,2023-10-09_12h22.37.184,sequence learning ,2023.2.1,None,2023-10-09 12h22.55.614670 +0530,
-50,x,4,0,16,0,,,,,46.02776745799929,,46.0193254170008,46.02776745799929,47.02156287501566,47.02156287501566,47.02156287501566,47.02156287501566,47.02156287501566,48.01821712497622,48.01821712497622,48.73627429199405,x,1,0.7104273750446737,None,sharanya,001,2023-10-09_12h22.37.184,sequence learning ,2023.2.1,None,2023-10-09 12h22.55.614670 +0530,
150,v,4,1,17,1,,,,,48.74454241700005,,48.7371232919395,48.74454241700005,49.738981124944985,49.738981124944985,49.738981124944985,49.738981124944985,49.738981124944985,50.73618462495506,50.73618462495506,51.535469249938615,v,1,0.7945349999936298,None,sharanya,001,2023-10-09_12h22.37.184,sequence learning ,2023.2.1,None,2023-10-09 12h22.55.614670 +0530,
50,c,4,2,18,2,,,,,51.54450666694902,,51.53646183293313,51.54450666694902,52.52733933296986,52.52733933296986,52.52733933296986,52.52733933296986,52.53385362494737,53.52770416694693,53.52770416694693,54.612096083001234,c,1,1.076133624999784,None,sharanya,001,2023-10-09_12h22.37.184,sequence learning ,2023.2.1,None,2023-10-09 12h22.55.614670 +0530,
-150,z,4,3,19,3,,,,,54.61907962500118,,54.612940291990526,54.61907962500118,55.60700979200192,55.60700979200192,55.60700979200192,55.60700979200192,55.61626045801677,56.60297391691711,56.60297391691711,57.318640333018266,z,1,0.7100172910140827,None,sharanya,001,2023-10-09_12h22.37.184,sequence learning ,2023.2.1,None,2023-10-09 12h22.55.614670 +0530,
-50,x,5,0,20,0,,,,,57.32808699994348,,57.31941999995615,57.32808699994348,58.32818354200572,58.32818354200572,58.32818354200572,58.32818354200572,58.34527099994011,59.31990170793142,59.31990170793142,60.12868066702504,x,1,0.801933208014816,None,sharanya,001,2023-10-09_12h22.37.184,sequence learning ,2023.2.1,None,2023-10-09 12h22.55.614670 +0530,
150,v,5,1,21,1,,,,,60.135458083008416,,60.1295309580164,60.135458083008416,61.12312016694341,61.12312016694341,61.12312016694341,61.12312016694341,61.13219033298083,62.12767837499268,62.12767837499268,62.95192699995823,v,1,0.819398874999024,None,sharanya,001,2023-10-09_12h22.37.184,sequence learning ,2023.2.1,None,2023-10-09 12h22.55.614670 +0530,
50,c,5,2,22,2,,,,,62.961558333016,,62.952693541999906,62.961558333016,63.961697791935876,63.961697791935876,63.961697791935876,63.961697791935876,63.97887529199943,64.94480175001081,64.94480175001081,65.8355977499159,c,1,0.886570957954973,None,sharanya,001,2023-10-09_12h22.37.184,sequence learning ,2023.2.1,None,2023-10-09 12h22.55.614670 +0530,
-150,z,5,3,23,3,,,,,65.84440016699955,,65.83645116700791,65.84440016699955,66.844910374959,66.844910374959,66.844910374959,66.844910374959,66.86205491691362,67.83607437496539,67.83607437496539,68.66227208299097,z,1,0.822459000046365,None,sharanya,001,2023-10-09_12h22.37.184,sequence learning ,2023.2.1,None,2023-10-09 12h22.55.614670 +0530,
-50,x,6,0,24,0,,,,,68.6680543749826,,68.6633873329265,68.6680543749826,69.66141795797739,69.66141795797739,69.66141795797739,69.66141795797739,69.66141795797739,70.66172712494154,70.66172712494154,71.53173649997916,x,1,0.8572255840990692,None,sharanya,001,2023-10-09_12h22.37.184,sequence learning ,2023.2.1,None,2023-10-09 12h22.55.614670 +0530,
150,v,6,1,25,1,,,,,71.54743829194922,,71.53951270796824,71.54743829194922,72.53996929200366,72.53996929200366,72.53996929200366,72.53996929200366,72.54913470800966,73.53645808296278,73.53645808296278,74.32887562492397,v,1,0.7862810000078753,None,sharanya,001,2023-10-09_12h22.37.184,sequence learning ,2023.2.1,None,2023-10-09 12h22.55.614670 +0530,
50,c,6,2,26,2,,,,,74.33554737502709,,74.32970941695385,74.33554737502709,75.32325758296065,75.32325758296065,75.32325758296065,75.32325758296065,75.33211099996697,76.32846925000194,76.32846925000194,77.13538004201837,c,1,0.8006007079966366,None,sharanya,001,2023-10-09_12h22.37.184,sequence learning ,2023.2.1,None,2023-10-09 12h22.55.614670 +0530,
-150,z,6,3,27,3,,,,,77.14506716700271,,77.13622320792638,77.14506716700271,78.13944887497928,78.13944887497928,78.13944887497928,78.13944887497928,78.13944887497928,79.12879845802672,79.12879845802672,79.77894441701937,z,1,0.6430799589725211,None,sharanya,001,2023-10-09_12h22.37.184,sequence learning ,2023.2.1,None,2023-10-09 12h22.55.614670 +0530,
-50,x,7,0,28,0,,,,,79.8003381669987,,79.79297075001523,79.8003381669987,80.79005362500902,80.79005362500902,80.79005362500902,80.79005362500902,80.79883287497796,81.78644416702446,81.78644416702446,82.59583562496118,x,1,0.8052734580123797,None,sharanya,001,2023-10-09_12h22.37.184,sequence learning ,2023.2.1,None,2023-10-09 12h22.55.614670 +0530,
150,v,7,1,29,1,,,,,82.60263841692358,,82.59672037500422,82.60263841692358,83.59510299994145,83.59510299994145,83.59510299994145,83.59510299994145,83.59510299994145,84.59500737499911,84.59500737499911,85.28562899993267,v,1,0.6873334579868242,None,sharanya,001,2023-10-09_12h22.37.184,sequence learning ,2023.2.1,None,2023-10-09 12h22.55.614670 +0530,
50,c,7,2,30,2,,,,,85.29448608297389,,85.28642149991356,85.29448608297389,86.28853420796804,86.28853420796804,86.28853420796804,86.28853420796804,86.28853420796804,87.28677333297674,87.28677333297674,88.06239462492522,c,1,0.7725967080332339,None,sharanya,001,2023-10-09_12h22.37.184,sequence learning ,2023.2.1,None,2023-10-09 12h22.55.614670 +0530,
-150,z,7,3,31,3,,,,,88.06910883297678,,88.0632354170084,88.06910883297678,89.05646374996286,89.05646374996286,89.05646374996286,89.05646374996286,89.06544979196042,90.05341375002172,90.05341375002172,90.75247112498619,z,1,0.6941448339493945,None,sharanya,001,2023-10-09_12h22.37.184,sequence learning ,2023.2.1,None,2023-10-09 12h22.55.614670 +0530,
-50,x,8,0,32,0,,,,,90.76174558291677,,90.75330637500156,90.76174558291677,91.75613254192285,91.75613254192285,91.75613254192285,91.75613254192285,91.75613254192285,92.74516154197045,92.74516154197045,93.51263441692572,x,1,0.7634495000820607,None,sharanya,001,2023-10-09_12h22.37.184,sequence learning ,2023.2.1,None,2023-10-09 12h22.55.614670 +0530,
150,v,8,1,33,1,,,,,93.51947866694536,,93.51346687495243,93.51947866694536,94.50679837493226,94.50679837493226,94.50679837493226,94.50679837493226,94.51584891695529,95.51183670794126,95.51183670794126,96.36255724995863,v,1,0.8499945000512525,None,sharanya,001,2023-10-09_12h22.37.184,sequence learning ,2023.2.1,None,2023-10-09 12h22.55.614670 +0530,
50,c,8,2,34,2,,,,,96.36922412493732,,96.36338133295067,96.36922412493732,97.35654895799235,97.35654895799235,97.35654895799235,97.35654895799235,97.36528229201213,98.36187462497037,98.36187462497037,99.19571737502702,c,1,0.82941175007727,None,sharanya,001,2023-10-09_12h22.37.184,sequence learning ,2023.2.1,None,2023-10-09 12h22.55.614670 +0530,
-150,z,8,3,35,3,,,,,99.20262420794461,,99.19662337494083,99.20262420794461,100.19005149998702,100.19005149998702,100.19005149998702,100.19005149998702,100.19907795800827,101.1869684580015,101.1869684580015,101.86251812498085,z,1,0.6663585000205785,None,sharanya,001,2023-10-09_12h22.37.184,sequence learning ,2023.2.1,None,2023-10-09 12h22.55.614670 +0530,
-50,x,9,0,36,0,,,,,101.8698199170176,,101.86339358298574,101.8698199170176,102.85726379195694,102.85726379195694,102.85726379195694,102.85726379195694,102.86619370791595,103.8619450830156,103.8619450830156,104.56941779202316,x,1,0.7010830419603735,None,sharanya,001,2023-10-09_12h22.37.184,sequence learning ,2023.2.1,None,2023-10-09 12h22.55.614670 +0530,
150,v,9,1,37,1,,,,,104.57856333302334,,104.57025404192973,104.57856333302334,105.57255287491716,105.57255287491716,105.57255287491716,105.57255287491716,105.57255287491716,106.57010508293752,106.57010508293752,107.33587154198904,v,1,0.7632234590128064,None,sharanya,001,2023-10-09_12h22.37.184,sequence learning ,2023.2.1,None,2023-10-09 12h22.55.614670 +0530,
50,c,9,2,38,2,,,,,107.34528420795687,,107.33670479198918,107.34528420795687,108.34555129194632,108.34555129194632,108.34555129194632,108.34555129194632,108.36273049993906,109.3286739999894,109.3286739999894,110.01938187493943,c,1,0.6866950830444694,None,sharanya,001,2023-10-09_12h22.37.184,sequence learning ,2023.2.1,None,2023-10-09 12h22.55.614670 +0530,
-150,z,9,3,39,3,,,,,110.02882074995432,,110.02021620795131,110.02882074995432,111.02250999992248,111.02250999992248,111.02250999992248,111.02250999992248,111.02250999992248,112.0204379579518,112.0204379579518,112.71971766697243,z,1,0.694163916981779,None,sharanya,001,2023-10-09_12h22.37.184,sequence learning ,2023.2.1,None,2023-10-09 12h22.55.614670 +0530,
-50,x,10,0,40,0,,,,,112.72814291692339,,112.72050379193388,112.72814291692339,113.72223366692197,113.72223366692197,113.72223366692197,113.72223366692197,113.72223366692197,114.72062824992463,114.72062824992463,115.51271070796065,x,1,0.7871705410070717,None,sharanya,001,2023-10-09_12h22.37.184,sequence learning ,2023.2.1,None,2023-10-09 12h22.55.614670 +0530,
150,v,10,1,41,1,,,,,115.51941870793235,,115.51353420794476,115.51941870793235,116.50671491702087,116.50671491702087,116.50671491702087,116.50671491702087,116.51561012491584,117.50392225000542,117.50392225000542,118.19611108291429,v,1,0.6867472080048174,None,sharanya,001,2023-10-09_12h22.37.184,sequence learning ,2023.2.1,None,2023-10-09 12h22.55.614670 +0530,
50,c,10,2,42,2,,,,,118.20288458291907,,118.19688195793424,118.20288458291907,119.19099358294625,119.19099358294625,119.19099358294625,119.19099358294625,119.20047566702124,120.19553699996322,120.19553699996322,120.80270224995911,c,1,0.6017769169993699,None,sharanya,001,2023-10-09_12h22.37.184,sequence learning ,2023.2.1,None,2023-10-09 12h22.55.614670 +0530,
-150,z,10,3,43,3,,,,,120.81208391697146,,120.80353425000794,120.81208391697146,121.80627679196186,121.80627679196186,121.80627679196186,121.80627679196186,121.80627679196186,122.79481758293696,122.79481758293696,123.45265999995172,z,1,0.6519216250162572,None,sharanya,001,2023-10-09_12h22.37.184,sequence learning ,2023.2.1,None,2023-10-09 12h22.55.614670 +0530,
-50,x,11,0,44,0,,,,,123.4621807920048,,123.4534283329267,123.4621807920048,124.4623339169193,124.4623339169193,124.4623339169193,124.4623339169193,124.47963012498803,125.44553141691722,125.44553141691722,126.22965691692661,x,1,0.7833930420456454,None,sharanya,001,2023-10-09_12h22.37.184,sequence learning ,2023.2.1,None,2023-10-09 12h22.55.614670 +0530,
150,v,11,1,45,1,,,,,126.23672287492082,,126.23048741696402,126.23672287492082,127.22366529202554,127.22366529202554,127.22366529202554,127.22366529202554,127.23257329198532,128.22893212502822,128.22893212502822,128.7962017080281,v,1,0.5636099169496447,None,sharanya,001,2023-10-09_12h22.37.184,sequence learning ,2023.2.1,None,2023-10-09 12h22.55.614670 +0530,
50,c,11,2,46,2,,,,,128.8031714579556,,128.79704487498384,128.8031714579556,129.7910212079296,129.7910212079296,129.7910212079296,129.7910212079296,129.79994116700254,130.79566516692284,130.79566516692284,131.40247354202438,c,1,0.6013595000840724,None,sharanya,001,2023-10-09_12h22.37.184,sequence learning ,2023.2.1,None,2023-10-09 12h22.55.614670 +0530,
-150,z,11,3,47,3,,,,,131.41167275002226,,131.40330762497615,131.41167275002226,132.4065412079217,132.4065412079217,132.4065412079217,132.4065412079217,132.4065412079217,133.39565533294808,133.39565533294808,133.66291245794855,z,1,0.261775708058849,None,sharanya,001,2023-10-09_12h22.37.184,sequence learning ,2023.2.1,None,2023-10-09 12h22.55.614670 +0530,
-50,x,12,0,48,0,,,,,133.66953941702377,,133.66373979195487,133.66953941702377,134.6572485419456,134.6572485419456,134.6572485419456,134.6572485419456,134.66627616691403,135.65415408299305,135.65415408299305,136.21990354196168,x,1,0.559213790926151,None,sharanya,001,2023-10-09_12h22.37.184,sequence learning ,2023.2.1,None,2023-10-09 12h22.55.614670 +0530,
150,v,12,1,49,1,,,,,136.22900062496774,,136.22067745798267,136.22900062496774,137.222712583025,137.222712583025,137.222712583025,137.222712583025,137.222712583025,138.22021470800973,138.22021470800973,139.0195404579863,v,1,0.7939768329961225,None,sharanya,001,2023-10-09_12h22.37.184,sequence learning ,2023.2.1,None,2023-10-09 12h22.55.614670 +0530,
50,c,12,2,50,2,,,,,139.02914866700303,,139.0203699580161,139.02914866700303,140.0232730829157,140.0232730829157,140.0232730829157,140.0232730829157,140.0232730829157,141.0126285830047,141.0126285830047,141.82962891692296,c,1,0.8100352920591831,None,sharanya,001,2023-10-09_12h22.37.184,sequence learning ,2023.2.1,None,2023-10-09 12h22.55.614670 +0530,
-150,z,12,3,51,3,,,,,141.83673258300405,,141.83047129202168,141.83673258300405,142.82395320793148,142.82395320793148,142.82395320793148,142.82395320793148,142.83305795793422,143.82911091693677,143.82911091693677,144.23018233291805,z,1,0.4003582081058994,None,sharanya,001,2023-10-09_12h22.37.184,sequence learning ,2023.2.1,None,2023-10-09 12h22.55.614670 +0530,
-50,x,13,0,52,0,,,,,144.2370060419198,,144.23100608296227,144.2370060419198,145.2232622919837,145.2232622919837,145.2232622919837,145.2232622919837,145.2323483750224,146.2292174999602,146.2292174999602,146.9466051249765,x,1,0.7091393750160933,None,sharanya,001,2023-10-09_12h22.37.184,sequence learning ,2023.2.1,None,2023-10-09 12h22.55.614670 +0530,
150,v,13,1,53,1,,,,,146.95405937498435,,146.94754354201723,146.95405937498435,147.9411407499574,147.9411407499574,147.9411407499574,147.9411407499574,147.95281458296813,148.9458571249852,148.9458571249852,149.26318416697904,v,1,0.31279370898846537,None,sharanya,001,2023-10-09_12h22.37.184,sequence learning ,2023.2.1,None,2023-10-09 12h22.55.614670 +0530,
50,c,13,2,54,2,,,,,149.27024754195008,,149.26401329191867,149.27024754195008,150.2575401669601,150.2575401669601,150.2575401669601,150.2575401669601,150.26653399993666,151.26217699993867,151.26217699993867,151.98785616701934,c,1,0.7178382909623906,None,sharanya,001,2023-10-09_12h22.37.184,sequence learning ,2023.2.1,None,2023-10-09 12h22.55.614670 +0530,
-150,z,13,3,55,3,,,,,151.99592704197858,,151.98869641695637,151.99592704197858,152.98968987492844,152.98968987492844,152.98968987492844,152.98968987492844,152.98968987492844,153.9875204169657,153.9875204169657,154.32027687493246,z,1,0.3262124171014875,None,sharanya,001,2023-10-09_12h22.37.184,sequence learning ,2023.2.1,None,2023-10-09 12h22.55.614670 +0530,
-50,x,14,0,56,0,,,,,154.32870995800477,,154.32118349999655,154.32870995800477,155.32984191691503,155.32984191691503,155.32984191691503,155.32984191691503,155.34686720801983,156.32061241695192,156.32061241695192,157.24667362496257,x,1,0.9198369580553845,None,sharanya,001,2023-10-09_12h22.37.184,sequence learning ,2023.2.1,None,2023-10-09 12h22.55.614670 +0530,
150,v,14,1,57,1,,,,,157.25359891692642,,157.2475085419137,157.25359891692642,158.2407620419981,158.2407620419981,158.2407620419981,158.2407620419981,158.2500208329875,159.23769333295058,159.23769333295058,159.8127803329844,v,1,0.5665757500100881,None,sharanya,001,2023-10-09_12h22.37.184,sequence learning ,2023.2.1,None,2023-10-09 12h22.55.614670 +0530,
50,c,14,2,58,2,,,,,159.8182686669752,,159.81363583297934,159.8182686669752,160.80718558293302,160.80718558293302,160.80718558293302,160.80718558293302,160.8159293329809,161.80449766700622,161.80449766700622,162.35293412499595,c,1,0.5454689589096233,None,sharanya,001,2023-10-09_12h22.37.184,sequence learning ,2023.2.1,None,2023-10-09 12h22.55.614670 +0530,
-150,z,14,3,59,3,,,,,162.36273458297364,,162.3537668749923,162.36273458297364,163.3469655829249,163.3469655829249,163.3469655829249,163.3469655829249,163.3567837079754,164.34613104199525,164.34613104199525,164.6133639169857,z,1,0.25702662498224527,None,sharanya,001,2023-10-09_12h22.37.184,sequence learning ,2023.2.1,None,2023-10-09 12h22.55.614670 +0530,
-50,x,15,0,60,0,,,,,164.6193440419156,,164.61419983301312,164.6193440419156,165.60754091700073,165.60754091700073,165.60754091700073,165.60754091700073,165.6164390000049,166.6034196249675,166.6034196249675,167.5965720829554,x,1,0.982792624970898,None,sharanya,001,2023-10-09_12h22.37.184,sequence learning ,2023.2.1,None,2023-10-09 12h22.55.614670 +0530,
150,v,15,1,61,1,,,,,167.60192229191307,,167.59741145791486,167.60192229191307,168.59071508294437,168.59071508294437,168.59071508294437,168.59071508294437,168.5995721250074,169.58736312494148,169.58736312494148,169.86977908294648,v,1,0.27625870902556926,None,sharanya,001,2023-10-09_12h22.37.184,sequence learning ,2023.2.1,None,2023-10-09 12h22.55.614670 +0530,
50,c,15,2,62,2,,,,,169.87949745799415,,169.87061112502124,169.87949745799415,170.8798473329516,170.8798473329516,170.8798473329516,170.8798473329516,170.89680354192387,171.86228720797226,171.86228720797226,172.430363417021,c,1,0.5588186669629067,None,sharanya,001,2023-10-09_12h22.37.184,sequence learning ,2023.2.1,None,2023-10-09 12h22.55.614670 +0530,
-150,z,15,3,63,3,,,,,172.4367551249452,,172.4310365829151,172.4367551249452,173.4243060000008,173.4243060000008,173.4243060000008,173.4243060000008,173.43248229194432,174.42950187495444,174.42950187495444,174.7032004579669,z,1,0.26776737498585135,None,sharanya,001,2023-10-09_12h22.37.184,sequence learning ,2023.2.1,None,2023-10-09 12h22.55.614670 +0530,
-50,x,16,0,64,0,,,,,174.71277616696898,,174.7039724169299,174.71277616696898,175.69973875000142,175.69973875000142,175.69973875000142,175.69973875000142,175.71328987495508,176.6962512920145,176.6962512920145,177.71358254202642,x,1,1.0082407919690013,None,sharanya,001,2023-10-09_12h22.37.184,sequence learning ,2023.2.1,None,2023-10-09 12h22.55.614670 +0530,
150,v,16,1,65,1,,,,,177.72046658291947,,177.71442604192998,177.72046658291947,178.70791379199363,178.70791379199363,178.70791379199363,178.70791379199363,178.7171393749304,179.7129771669861,179.7129771669861,180.33035787497647,v,1,0.6096362500684336,None,sharanya,001,2023-10-09_12h22.37.184,sequence learning ,2023.2.1,None,2023-10-09 12h22.55.614670 +0530,
50,c,16,2,66,2,,,,,180.33707116695587,,180.33118754194584,180.33707116695587,181.32418037496973,181.32418037496973,181.32418037496973,181.32418037496973,181.33294562494848,182.32963641698007,182.32963641698007,183.11376999993809,c,1,0.7764714999357238,None,sharanya,001,2023-10-09_12h22.37.184,sequence learning ,2023.2.1,None,2023-10-09 12h22.55.614670 +0530,
-150,z,16,3,67,3,,,,,183.12077174999285,,183.1146022080211,183.12077174999285,184.1074985829182,184.1074985829182,184.1074985829182,184.1074985829182,184.11648416693788,185.11296008294448,185.11296008294448,185.44691558298655,z,1,0.33324220799840987,None,sharanya,001,2023-10-09_12h22.37.184,sequence learning ,2023.2.1,None,2023-10-09 12h22.55.614670 +0530,
-50,x,17,0,68,0,,,,,185.45393095794134,,185.44774783297908,185.45393095794134,186.4409862079192,186.4409862079192,186.4409862079192,186.4409862079192,186.44975045800675,187.44643308292143,187.44643308292143,188.10301924997475,x,1,0.6532266250578687,None,sharanya,001,2023-10-09_12h22.37.184,sequence learning ,2023.2.1,None,2023-10-09 12h22.55.614670 +0530,
150,v,17,1,69,1,,,,,188.1129774999572,,188.10384970798623,188.1129774999572,189.11314904200844,189.11314904200844,189.11314904200844,189.11314904200844,189.13044087495655,190.0964961249847,190.0964961249847,190.32212558295578,v,1,0.2169069170486182,None,sharanya,001,2023-10-09_12h22.37.184,sequence learning ,2023.2.1,None,2023-10-09 12h22.55.614670 +0530,
50,c,17,2,70,2,,,,,190.3295588749461,,190.32296779192984,190.3295588749461,191.3232709999429,191.3232709999429,191.3232709999429,191.3232709999429,191.3232709999429,192.32128329202533,192.32128329202533,192.58684945793357,c,1,0.2614026250084862,None,sharanya,001,2023-10-09_12h22.37.184,sequence learning ,2023.2.1,None,2023-10-09 12h22.55.614670 +0530,
-150,z,17,3,71,3,,,,,192.59603362495545,,192.5876822079299,192.59603362495545,193.59658066695556,193.59658066695556,193.59658066695556,193.59658066695556,193.61368916695938,194.5790909579955,194.5790909579955,195.23039054195397,z,1,0.643889082944952,None,sharanya,001,2023-10-09_12h22.37.184,sequence learning ,2023.2.1,None,2023-10-09 12h22.55.614670 +0530,
-50,x,18,0,72,0,,,,,195.23708258301485,,195.2312373749446,195.23708258301485,196.22504462499637,196.22504462499637,196.22504462499637,196.22504462499637,196.23393787501846,197.22972125001252,197.22972125001252,197.9366296249209,x,1,0.7051115840440616,None,sharanya,001,2023-10-09_12h22.37.184,sequence learning ,2023.2.1,None,2023-10-09 12h22.55.614670 +0530,
150,v,18,1,73,1,,,,,197.94647137494758,,197.93746425001882,197.94647137494758,198.94658150000032,198.94658150000032,198.94658150000032,198.94658150000032,198.96386412496213,199.92985045793466,199.92985045793466,200.28036299999803,v,1,0.3480910420184955,None,sharanya,001,2023-10-09_12h22.37.184,sequence learning ,2023.2.1,None,2023-10-09 12h22.55.614670 +0530,
50,c,18,2,74,2,,,,,200.28712829202414,,200.28119129198603,200.28712829202414,201.27451825002208,201.27451825002208,201.27451825002208,201.27451825002208,201.28369012498297,202.27982125000563,202.27982125000563,202.56371929193847,c,1,0.28060449997428805,None,sharanya,001,2023-10-09_12h22.37.184,sequence learning ,2023.2.1,None,2023-10-09 12h22.55.614670 +0530,
-150,z,18,3,75,3,,,,,202.57066145795397,,202.5646229579579,202.57066145795397,203.55898537498433,203.55898537498433,203.55898537498433,203.55898537498433,203.5684541669907,204.5631479169242,204.5631479169242,204.89732141699642,z,1,0.32442824996542186,None,sharanya,001,2023-10-09_12h22.37.184,sequence learning ,2023.2.1,None,2023-10-09 12h22.55.614670 +0530,
-50,x,19,0,76,0,,,,,204.90427145792637,,204.89814179192763,204.90427145792637,205.89154783298727,205.89154783298727,205.89154783298727,205.89154783298727,205.90055570797995,206.89665237499867,206.89665237499867,207.65537779196166,x,1,0.7511447499273345,None,sharanya,001,2023-10-09_12h22.37.184,sequence learning ,2023.2.1,None,2023-10-09 12h22.55.614670 +0530,
150,v,19,1,77,1,,,,,207.6631787919905,,207.6561592919752,207.6631787919905,208.6575919999741,208.6575919999741,208.6575919999741,208.6575919999741,208.6575919999741,209.65457558294293,209.65457558294293,210.3390553749632,v,1,0.6759583749808371,None,sharanya,001,2023-10-09_12h22.37.184,sequence learning ,2023.2.1,None,2023-10-09 12h22.55.614670 +0530,
50,c,19,2,78,2,,,,,210.346560416976,,210.33989037491847,210.346560416976,211.34073966694996,211.34073966694996,211.34073966694996,211.34073966694996,211.34073966694996,212.33793191693258,212.33793191693258,212.98695924994536,c,1,0.6466032500611618,None,sharanya,001,2023-10-09_12h22.37.184,sequence learning ,2023.2.1,None,2023-10-09 12h22.55.614670 +0530,
-150,z,19,3,79,3,,,,,212.99677241698373,,212.9877283750102,212.99677241698373,213.98084441700485,213.98084441700485,213.98084441700485,213.98084441700485,213.99043333297595,214.98000795801636,214.98000795801636,215.28738100000191,z,1,0.30366275005508214,None,sharanya,001,2023-10-09_12h22.37.184,sequence learning ,2023.2.1,None,2023-10-09 12h22.55.614670 +0530,
-50,x,20,0,80,0,,,,,215.29620595800225,,215.28822579199914,215.29620595800225,216.29099770798348,216.29099770798348,216.29099770798348,216.29099770798348,216.29099770798348,217.2880668749567,217.2880668749567,218.0705845420016,x,1,0.7772337909555063,None,sharanya,001,2023-10-09_12h22.37.184,sequence learning ,2023.2.1,None,2023-10-09 12h22.55.614670 +0530,
150,v,20,1,81,1,,,,,218.07943062495906,,218.0713570829248,218.07943062495906,219.08031791693065,219.08031791693065,219.08031791693065,219.08031791693065,219.0974985419307,220.06337804195937,220.06337804195937,220.6302763329586,v,1,0.5630347079131752,None,sharanya,001,2023-10-09_12h22.37.184,sequence learning ,2023.2.1,None,2023-10-09 12h22.55.614670 +0530,
50,c,20,2,82,2,,,,,220.63711304194294,,220.6311033749953,220.63711304194294,221.62467758299317,221.62467758299317,221.62467758299317,221.62467758299317,221.63363687496167,222.62133841693867,222.62133841693867,223.5969476669561,c,1,0.9724789999891073,None,sharanya,001,2023-10-09_12h22.37.184,sequence learning ,2023.2.1,None,2023-10-09 12h22.55.614670 +0530,
-150,z,20,3,83,3,,,,,223.60401216696482,,223.59777579200454,223.60401216696482,224.59121658292133,224.59121658292133,224.59121658292133,224.59121658292133,224.60021270799916,225.5884546249872,225.5884546249872,225.8640612079762,z,1,0.27083379204850644,None,sharanya,001,2023-10-09_12h22.37.184,sequence learning ,2023.2.1,None,2023-10-09 12h22.55.614670 +0530,
-50,x,21,0,84,0,,,,,225.87083933292888,,225.86489204200916,225.87083933292888,226.85795504192356,226.85795504192356,226.85795504192356,226.85795504192356,226.8673403749708,227.8551311249612,227.8551311249612,228.89742133300751,x,1,1.0320851660799235,None,sharanya,001,2023-10-09_12h22.37.184,sequence learning ,2023.2.1,None,2023-10-09 12h22.55.614670 +0530,
150,v,21,1,85,1,,,,,228.90294479194563,,228.89826616691425,228.90294479194563,229.89126487495378,229.89126487495378,229.89126487495378,229.89126487495378,229.90019479196053,230.8969732079422,230.8969732079422,231.46359533292707,v,1,0.5629452499561012,None,sharanya,001,2023-10-09_12h22.37.184,sequence learning ,2023.2.1,None,2023-10-09 12h22.55.614670 +0530,
50,c,21,2,86,2,,,,,231.47078908293042,,231.46442908293102,231.47078908293042,232.4590375829721,232.4590375829721,232.4590375829721,232.4590375829721,232.46794037497602,233.45519041700754,233.45519041700754,233.71394954202697,c,1,0.25054570799693465,None,sharanya,001,2023-10-09_12h22.37.184,sequence learning ,2023.2.1,None,2023-10-09 12h22.55.614670 +0530,
-150,z,21,3,87,3,,,,,233.7210429169936,,233.71479012502823,233.7210429169936,234.7079521670239,234.7079521670239,234.7079521670239,234.7079521670239,234.7169478329597,235.70496799994726,235.70496799994726,236.03047983301803,z,1,0.3217555000446737,None,sharanya,001,2023-10-09_12h22.37.184,sequence learning ,2023.2.1,None,2023-10-09 12h22.55.614670 +0530,
-50,x,22,0,88,0,,,,,236.03741720796097,,236.03130945796147,236.03741720796097,237.0246803329792,237.0246803329792,237.0246803329792,237.0246803329792,237.03373345802538,238.02193191694096,238.02193191694096,238.46427970798686,x,1,0.43623604194726795,None,sharanya,001,2023-10-09_12h22.37.184,sequence learning ,2023.2.1,None,2023-10-09 12h22.55.614670 +0530,
150,v,22,1,89,1,,,,,238.47115179197863,,238.4651119170012,238.47115179197863,239.45877741696313,239.45877741696313,239.45877741696313,239.45877741696313,239.46776108292397,240.46367837500293,240.46367837500293,240.73755370802246,v,1,0.26769395801238716,None,sharanya,001,2023-10-09_12h22.37.184,sequence learning ,2023.2.1,None,2023-10-09 12h22.55.614670 +0530,
50,c,22,2,90,2,,,,,240.7463782079285,,240.73837199993432,240.7463782079285,241.7412032079883,241.7412032079883,241.7412032079883,241.7412032079883,241.7412032079883,242.73025883291848,242.73025883291848,243.020498124999,c,1,0.2853460420155898,None,sharanya,001,2023-10-09_12h22.37.184,sequence learning ,2023.2.1,None,2023-10-09 12h22.55.614670 +0530,
-150,z,22,3,91,3,,,,,243.03036179195624,,243.02132054197136,243.03036179195624,244.01468912500422,244.01468912500422,244.01468912500422,244.01468912500422,244.02443812496495,245.0136462500086,245.0136462500086,245.59768224996515,z,1,0.5780624999897555,None,sharanya,001,2023-10-09_12h22.37.184,sequence learning ,2023.2.1,None,2023-10-09 12h22.55.614670 +0530,
-50,x,23,0,92,0,,,,,245.60566020791885,,245.5985273750266,245.60566020791885,246.5924486250151,246.5924486250151,246.5924486250151,246.5924486250151,246.60144154191948,247.61441724991892,247.61441724991892,248.44777587498538,x,1,0.8243906249990687,None,sharanya,001,2023-10-09_12h22.37.184,sequence learning ,2023.2.1,None,2023-10-09 12h22.55.614670 +0530,
150,v,23,1,93,1,,,,,248.45495591696817,,248.44863137498032,248.45495591696817,249.44149970798753,249.44149970798753,249.44149970798753,249.44149970798753,249.45038958301302,250.44716179196257,250.44716179196257,250.8977523749927,v,1,0.4469560419674963,None,sharanya,001,2023-10-09_12h22.37.184,sequence learning ,2023.2.1,None,2023-10-09 12h22.55.614670 +0530,
50,c,23,2,94,2,,,,,250.90459304198157,,250.89857641700655,250.90459304198157,251.8917606669711,251.8917606669711,251.8917606669711,251.8917606669711,251.9007038329728,252.89629037491977,252.89629037491977,253.42101645795628,c,1,0.5237736250273883,None,sharanya,001,2023-10-09_12h22.37.184,sequence learning ,2023.2.1,None,2023-10-09 12h22.55.614670 +0530,
-150,z,23,3,95,3,,,,,253.4298247079132,,253.42184258298948,253.4298247079132,254.4245626250049,254.4245626250049,254.4245626250049,254.4245626250049,254.4245626250049,255.41291120799724,255.41291120799724,255.75527695799246,z,1,0.3414990419987589,None,sharanya,001,2023-10-09_12h22.37.184,sequence learning ,2023.2.1,None,2023-10-09 12h22.55.614670 +0530,
-50,x,24,0,96,0,,,,,255.76385866699275,,255.75617662491277,255.76385866699275,256.75776624993887,256.75776624993887,256.75776624993887,256.75776624993887,256.75776624993887,257.7556349999504,257.7556349999504,258.68122954200953,x,1,0.9230137499980628,None,sharanya,001,2023-10-09_12h22.37.184,sequence learning ,2023.2.1,None,2023-10-09 12h22.55.614670 +0530,
150,v,24,1,97,1,,,,,258.68812724994496,,258.68205070798285,258.68812724994496,259.6750057499157,259.6750057499157,259.6750057499157,259.6750057499157,259.68397987494245,260.68049924995285,260.68049924995285,261.00464083300903,v,1,0.3214379580458626,None,sharanya,001,2023-10-09_12h22.37.184,sequence learning ,2023.2.1,None,2023-10-09 12h22.55.614670 +0530,
50,c,24,2,98,2,,,,,261.01382824999746,,261.005466624978,261.01382824999746,262.0138638749486,262.0138638749486,262.0138638749486,262.0138638749486,262.03130504197907,262.9971201670123,262.9971201670123,264.03127166698687,c,1,1.0293776670005172,None,sharanya,001,2023-10-09_12h22.37.184,sequence learning ,2023.2.1,None,2023-10-09 12h22.55.614670 +0530,
-150,z,24,3,99,3,,,,,264.03797633294016,,264.0320931249298,264.03797633294016,265.02422387502156,265.02422387502156,265.02422387502156,265.02422387502156,265.0332205829909,266.03055891697295,266.03055891697295,266.88769833301194,z,1,0.8538144170306623,None,sharanya,001,2023-10-09_12h22.37.184,sequence learning ,2023.2.1,None,2023-10-09 12h22.55.614670 +0530,
-50,x,25,0,100,0,,,,,266.8972123329295,,266.8885392919183,266.8972123329295,267.8814412499778,267.8814412499778,267.8814412499778,267.8814412499778,267.89142708294094,268.88057633291464,268.88057633291464,269.2141295420006,x,1,0.3241834999062121,None,sharanya,001,2023-10-09_12h22.37.184,sequence learning ,2023.2.1,None,2023-10-09 12h22.55.614670 +0530,
150,v,25,1,101,1,,,,,269.219951499952,,269.2149898329517,269.219951499952,270.2086859169649,270.2086859169649,270.2086859169649,270.2086859169649,270.2175049169455,271.2052024169825,271.2052024169825,271.62120783294085,v,1,0.41130425001028925,None,sharanya,001,2023-10-09_12h22.37.184,sequence learning ,2023.2.1,None,2023-10-09 12h22.55.614670 +0530,
50,c,25,2,102,2,,,,,271.6306228749454,,271.6220358329592,271.6306228749454,272.6308540420141,272.6308540420141,272.6308540420141,272.6308540420141,272.64789562497754,273.61397737497464,273.61397737497464,274.7312745000236,c,1,1.1107216249220073,None,sharanya,001,2023-10-09_12h22.37.184,sequence learning ,2023.2.1,None,2023-10-09 12h22.55.614670 +0530,
-150,z,25,3,103,3,,,,,274.73829154192936,,274.7321207919158,274.73829154192936,275.72642645798624,275.72642645798624,275.72642645798624,275.72642645798624,275.73587433295324,276.7223508330062,276.7223508330062,277.12099854194093,z,1,0.3930922501021996,None,sharanya,001,2023-10-09_12h22.37.184,sequence learning ,2023.2.1,None,2023-10-09 12h22.55.614670 +0530,
-50,x,26,0,104,0,,,,,277.13066458294634,,277.1218357499456,277.13066458294634,278.12414299999364,278.12414299999364,278.12414299999364,278.12414299999364,278.12414299999364,279.11415545793716,279.11415545793716,279.7314624169376,x,1,0.6119538330240175,None,sharanya,001,2023-10-09_12h22.37.184,sequence learning ,2023.2.1,None,2023-10-09 12h22.55.614670 +0530,
150,v,26,1,105,1,,,,,279.7382772079436,,279.73225529200863,279.7382772079436,280.72517300001346,280.72517300001346,280.72517300001346,280.72517300001346,280.7340624999488,281.73072374996264,281.73072374996264,282.1215130829951,v,1,0.384145624935627,None,sharanya,001,2023-10-09_12h22.37.184,sequence learning ,2023.2.1,None,2023-10-09 12h22.55.614670 +0530,
50,c,26,2,106,2,,,,,282.1307295829756,,282.1223326670006,282.1307295829756,283.1308651249856,283.1308651249856,283.1308651249856,283.1308651249856,283.1481790000107,284.1142399170203,284.1142399170203,284.78142712498084,c,1,0.6627681250683963,None,sharanya,001,2023-10-09_12h22.37.184,sequence learning ,2023.2.1,None,2023-10-09 12h22.55.614670 +0530,
-150,z,26,3,107,3,,,,,284.7878797079902,,284.7822599579813,284.7878797079902,285.7757818750106,285.7757818750106,285.7757818750106,285.7757818750106,285.7841929169372,286.7720599999884,286.7720599999884,287.1715391249163,z,1,0.39652404095977545,None,sharanya,001,2023-10-09_12h22.37.184,sequence learning ,2023.2.1,None,2023-10-09 12h22.55.614670 +0530,
-50,x,27,0,108,0,,,,,287.18033220793586,,287.1723722079769,287.18033220793586,288.1745009169681,288.1745009169681,288.1745009169681,288.1745009169681,288.1745009169681,289.1641273329733,289.1641273329733,289.9649167499738,x,1,0.7925469580804929,None,sharanya,001,2023-10-09_12h22.37.184,sequence learning ,2023.2.1,None,2023-10-09 12h22.55.614670 +0530,
150,v,27,1,109,1,,,,,289.9718251249287,,289.9657377919648,289.9718251249287,290.9589857920073,290.9589857920073,290.9589857920073,290.9589857920073,290.96789179195184,291.9641774999909,291.9641774999909,292.37100779195316,v,1,0.4037642090115696,None,sharanya,001,2023-10-09_12h22.37.184,sequence learning ,2023.2.1,None,2023-10-09 12h22.55.614670 +0530,
50,c,27,2,110,2,,,,,292.3810044579441,,292.3718360000057,292.3810044579441,293.3810944579309,293.3810944579309,293.3810944579309,293.3810944579309,293.3983640000224,294.36432787496597,294.36432787496597,294.65500495792367,c,1,0.28397341701202095,None,sharanya,001,2023-10-09_12h22.37.184,sequence learning ,2023.2.1,None,2023-10-09 12h22.55.614670 +0530,
-150,z,27,3,111,3,,,,,294.66417000000365,,294.6558323330246,294.66417000000365,295.657918541925,295.657918541925,295.657918541925,295.657918541925,295.657918541925,296.6561528330203,296.6561528330203,297.03815645794384,z,1,0.37924329098314047,None,sharanya,001,2023-10-09_12h22.37.184,sequence learning ,2023.2.1,None,2023-10-09 12h22.55.614670 +0530,
-50,x,28,0,112,0,,,,,297.0476210829802,,297.0389882499585,297.0476210829802,298.04177129198797,298.04177129198797,298.04177129198797,298.04177129198797,298.04177129198797,299.03100133291446,299.03100133291446,299.51485579193104,x,1,0.48314174998085946,None,sharanya,001,2023-10-09_12h22.37.184,sequence learning ,2023.2.1,None,2023-10-09 12h22.55.614670 +0530,
150,v,28,1,113,1,,,,,299.5217005829327,,299.51568604202475,299.5217005829327,300.50893670797814,300.50893670797814,300.50893670797814,300.50893670797814,300.5179229999194,301.5143446669681,301.5143446669681,301.8316776669817,v,1,0.31333404197357595,None,sharanya,001,2023-10-09_12h22.37.184,sequence learning ,2023.2.1,None,2023-10-09 12h22.55.614670 +0530,
50,c,28,2,114,2,,,,,301.8385164999636,,301.832503041951,301.8385164999636,302.82573429192416,302.82573429192416,302.82573429192416,302.82573429192416,302.8345686249668,303.8309806250036,303.8309806250036,304.6884271670133,c,1,0.8513999170390889,None,sharanya,001,2023-10-09_12h22.37.184,sequence learning ,2023.2.1,None,2023-10-09 12h22.55.614670 +0530,
-150,z,28,3,115,3,,,,,304.69765758293215,,304.68919466692023,304.69765758293215,305.69185279193334,305.69185279193334,305.69185279193334,305.69185279193334,305.69185279193334,306.6809968330199,306.6809968330199,307.238247207948,z,1,0.5547677499707788,None,sharanya,001,2023-10-09_12h22.37.184,sequence learning ,2023.2.1,None,2023-10-09 12h22.55.614670 +0530,
-50,x,29,0,116,0,,,,,307.24761433294043,,307.23907925002277,307.24761433294043,308.2310305000283,308.2310305000283,308.2310305000283,308.2310305000283,308.24147708294913,309.2311222499702,309.2311222499702,309.8050797919277,x,1,0.5731715000001714,None,sharanya,001,2023-10-09_12h22.37.184,sequence learning ,2023.2.1,None,2023-10-09 12h22.55.614670 +0530,
150,v,29,1,117,1,,,,,309.8143306670245,,309.8058459999738,309.8143306670245,310.80802529200446,310.80802529200446,310.80802529200446,310.80802529200446,310.80802529200446,311.797879791935,311.797879791935,312.2048267920036,v,1,0.40322474995628,None,sharanya,001,2023-10-09_12h22.37.184,sequence learning ,2023.2.1,None,2023-10-09 12h22.55.614670 +0530,
50,c,29,2,118,2,,,,,312.2137910829624,,312.2056622080272,312.2137910829624,313.2005571669433,313.2005571669433,313.2005571669433,313.2005571669433,313.21485616697464,314.197758208029,314.197758208029,314.8550735829631,c,1,0.6510199159383774,None,sharanya,001,2023-10-09_12h22.37.184,sequence learning ,2023.2.1,None,2023-10-09 12h22.55.614670 +0530,
-150,z,29,3,119,3,,,,,314.864422249957,,314.8558950419538,314.864422249957,315.85806241701357,315.85806241701357,315.85806241701357,315.85806241701357,315.85806241701357,316.847779624979,316.847779624979,317.30533504195046,z,1,0.4561974999960512,None,sharanya,001,2023-10-09_12h22.37.184,sequence learning ,2023.2.1,None,2023-10-09 12h22.55.614670 +0530,
-50,x,30,0,120,0,,,,,317.31444724998437,,317.3061636670027,317.31444724998437,318.3148534579668,318.3148534579668,318.3148534579668,318.3148534579668,318.3317601670278,319.3061601249501,319.3061601249501,320.4045894580195,x,1,1.092834291048348,None,sharanya,001,2023-10-09_12h22.37.184,sequence learning ,2023.2.1,None,2023-10-09 12h22.55.614670 +0530,
150,v,30,1,121,1,,,,,320.41443429200444,,320.4053520829184,320.41443429200444,321.39868066692725,321.39868066692725,321.39868066692725,321.39868066692725,321.4087105420185,322.3979802499525,322.3979802499525,322.8733031669399,v,1,0.46766437496989965,None,sharanya,001,2023-10-09_12h22.37.184,sequence learning ,2023.2.1,None,2023-10-09 12h22.55.614670 +0530,
50,c,30,2,122,2,,,,,322.8810992499348,,322.8741402919404,322.8810992499348,323.87526737502776,323.87526737502776,323.87526737502776,323.87526737502776,323.87526737502776,324.8726284999866,324.8726284999866,325.238790125004,c,1,0.3653182500274852,None,sharanya,001,2023-10-09_12h22.37.184,sequence learning ,2023.2.1,None,2023-10-09 12h22.55.614670 +0530,
-150,z,30,3,123,3,,,,,325.2478772079339,,325.239620791981,325.2478772079339,326.2416797080077,326.2416797080077,326.2416797080077,326.2416797080077,326.2416797080077,327.2396759169642,327.2396759169642,327.5891061249422,z,1,0.3486119589069858,None,sharanya,001,2023-10-09_12h22.37.184,sequence learning ,2023.2.1,None,2023-10-09 12h22.55.614670 +0530,
-50,x,31,0,124,0,,,,,327.59740029193927,,327.589933082927,327.59740029193927,328.5919028329663,328.5919028329663,328.5919028329663,328.5919028329663,328.5919028329663,329.58914595795795,329.58914595795795,330.805363417021,x,1,1.2146257089916617,None,sharanya,001,2023-10-09_12h22.37.184,sequence learning ,2023.2.1,None,2023-10-09 12h22.55.614670 +0530,
150,v,31,1,125,1,,,,,330.8146277499618,,330.8061879579909,330.8146277499618,331.81483637494966,331.81483637494966,331.81483637494966,331.81483637494966,331.83202991692815,332.79809837497305,332.79809837497305,333.4384853329975,v,1,0.6350578339770436,None,sharanya,001,2023-10-09_12h22.37.184,sequence learning ,2023.2.1,None,2023-10-09 12h22.55.614670 +0530,
50,c,31,2,126,2,,,,,333.44809479196556,,333.4393177499296,333.44809479196556,334.4417242499767,334.4417242499767,334.4417242499767,334.4417242499767,334.4417242499767,335.43988037493546,335.43988037493546,336.3980927079683,c,1,0.9482478749705479,None,sharanya,001,2023-10-09_12h22.37.184,sequence learning ,2023.2.1,None,2023-10-09 12h22.55.614670 +0530,
-150,z,31,3,127,3,,,,,336.40380733297206,,336.39888287498616,336.40380733297206,337.3932325419737,337.3932325419737,337.3932325419737,337.3932325419737,337.4022232919233,338.38942295801826,338.38942295801826,338.77206570794806,z,1,0.3790688749868423,None,sharanya,001,2023-10-09_12h22.37.184,sequence learning ,2023.2.1,None,2023-10-09 12h22.55.614670 +0530,
-50,x,32,0,128,0,,,,,338.7814106249716,,338.77289345802274,338.7814106249716,339.77521087497007,339.77521087497007,339.77521087497007,339.77521087497007,339.77521087497007,340.7647637500195,340.7647637500195,341.56524770800024,x,1,0.7910006250021979,None,sharanya,001,2023-10-09_12h22.37.184,sequence learning ,2023.2.1,None,2023-10-09 12h22.55.614670 +0530,
150,v,32,1,129,1,,,,,341.5718136249343,,341.56607145792805,341.5718136249343,342.5597320829984,342.5597320829984,342.5597320829984,342.5597320829984,342.5686276250053,343.5647875419818,343.5647875419818,343.9156591669889,v,1,0.3432837500004098,None,sharanya,001,2023-10-09_12h22.37.184,sequence learning ,2023.2.1,None,2023-10-09 12h22.55.614670 +0530,
50,c,32,2,130,2,,,,,343.92233370791655,,343.9164865829516,343.92233370791655,344.9154228749685,344.9154228749685,344.9154228749685,344.9154228749685,344.9229205419542,345.91481745801866,345.91481745801866,346.7054965000134,c,1,0.7861022079596296,None,sharanya,001,2023-10-09_12h22.37.184,sequence learning ,2023.2.1,None,2023-10-09 12h22.55.614670 +0530,
-150,z,32,3,131,3,,,,,346.71484683302697,,346.70633779198397,346.71484683302697,347.7150687079411,347.7150687079411,347.7150687079411,347.7150687079411,347.73224566702265,348.6977327079512,348.6977327079512,349.08200524991844,z,1,0.3773975420044735,None,sharanya,001,2023-10-09_12h22.37.184,sequence learning ,2023.2.1,None,2023-10-09 12h22.55.614670 +0530,
-50,x,33,0,132,0,,,,,349.08864600001834,,349.0828342499444,349.08864600001834,350.0770467920229,350.0770467920229,350.0770467920229,350.0770467920229,350.08611708297394,351.07320358301513,351.07320358301513,352.055026291986,x,1,0.9794573748949915,None,sharanya,001,2023-10-09_12h22.37.184,sequence learning ,2023.2.1,None,2023-10-09 12h22.55.614670 +0530,
150,v,33,1,133,1,,,,,352.0648344999645,,352.05585716699716,352.0648344999645,353.05885608296376,353.05885608296376,353.05885608296376,353.05885608296376,353.05885608296376,354.0484051669482,354.0484051669482,354.70538495795336,v,1,0.6542582080001011,None,sharanya,001,2023-10-09_12h22.37.184,sequence learning ,2023.2.1,None,2023-10-09 12h22.55.614670 +0530,
50,c,33,2,134,2,,,,,354.71492879197467,,354.70621183293406,354.71492879197467,355.7091829580022,355.7091829580022,355.7091829580022,355.7091829580022,355.7091829580022,356.6982909999788,356.6982909999788,357.44884545798413,c,1,0.7464423750061542,None,sharanya,001,2023-10-09_12h22.37.184,sequence learning ,2023.2.1,None,2023-10-09 12h22.55.614670 +0530,
-150,z,33,3,135,3,,,,,357.4555862499401,,357.44968004198745,357.4555862499401,358.4429648750229,358.4429648750229,358.4429648750229,358.4429648750229,358.45180270797573,359.44837050000206,359.44837050000206,360.0721117500216,z,1,0.6183084580115974,None,sharanya,001,2023-10-09_12h22.37.184,sequence learning ,2023.2.1,None,2023-10-09 12h22.55.614670 +0530,
-50,x,34,0,136,0,,,,,360.0816502919188,,360.07280899991747,360.0816502919188,361.08182874997146,361.08182874997146,361.08182874997146,361.08182874997146,361.09857858298346,362.06484583299607,362.06484583299607,362.74890841695014,x,1,0.678796958993189,None,sharanya,001,2023-10-09_12h22.37.184,sequence learning ,2023.2.1,None,2023-10-09 12h22.55.614670 +0530,
150,v,34,1,137,1,,,,,362.75573137495667,,362.74980958295055,362.75573137495667,363.7428596250247,363.7428596250247,363.7428596250247,363.7428596250247,363.75168695801403,364.73963962495327,364.73963962495327,365.05526149994694,v,1,0.3114672499941662,None,sharanya,001,2023-10-09_12h22.37.184,sequence learning ,2023.2.1,None,2023-10-09 12h22.55.614670 +0530,
50,c,34,2,138,2,,,,,365.0644037500024,,365.0560376669746,365.0644037500024,366.065124707995,366.065124707995,366.065124707995,366.065124707995,366.0824130419642,367.0483347920235,367.0483347920235,368.01560024998616,c,1,0.9568607080727816,None,sharanya,001,2023-10-09_12h22.37.184,sequence learning ,2023.2.1,None,2023-10-09 12h22.55.614670 +0530,
-150,z,34,3,139,3,,,,,368.02102116693277,,368.0164385830285,368.02102116693277,369.00710574991535,369.00710574991535,369.00710574991535,369.00710574991535,369.0316729999613,370.01497041701805,370.01497041701805,370.63863254198804,z,1,0.6199899580096826,None,sharanya,001,2023-10-09_12h22.37.184,sequence learning ,2023.2.1,None,2023-10-09 12h22.55.614670 +0530,
-50,x,35,0,140,0,,,,,370.648390791961,,370.6394292919431,370.648390791961,371.6327558750054,371.6327558750054,371.6327558750054,371.6327558750054,371.64220266696066,372.6317010829225,372.6317010829225,372.92255620798096,x,1,0.2870452089700848,None,sharanya,001,2023-10-09_12h22.37.184,sequence learning ,2023.2.1,None,2023-10-09 12h22.55.614670 +0530,
150,v,35,1,141,1,,,,,372.931736666942,,372.9233920419356,372.931736666942,373.91604529193137,373.91604529193137,373.91604529193137,373.91604529193137,373.92562466696836,374.92329012497794,374.92329012497794,375.28257425001357,v,1,0.3519006250426173,None,sharanya,001,2023-10-09_12h22.37.184,sequence learning ,2023.2.1,None,2023-10-09 12h22.55.614670 +0530,
50,c,35,2,142,2,,,,,375.28949170792475,,375.28342262492515,375.28949170792475,376.2772612499539,376.2772612499539,376.2772612499539,376.2772612499539,376.2863459580112,377.2818818750093,377.2818818750093,377.59867858293,c,1,0.3111092080362141,None,sharanya,001,2023-10-09_12h22.37.184,sequence learning ,2023.2.1,None,2023-10-09 12h22.55.614670 +0530,
-150,z,35,3,143,3,,,,,377.605608291924,,377.59951979201287,377.605608291924,378.5935154579347,378.5935154579347,378.5935154579347,378.5935154579347,378.6024882919155,379.58971787500195,379.58971787500195,379.96535166702233,z,1,0.3670928329229355,None,sharanya,001,2023-10-09_12h22.37.184,sequence learning ,2023.2.1,None,2023-10-09 12h22.55.614670 +0530,
-50,x,36,0,144,0,,,,,379.9710122080287,,379.9661913749296,379.9710122080287,380.96050087502226,380.96050087502226,380.96050087502226,380.96050087502226,380.9695180419367,381.9568319169339,381.9568319169339,382.689624874969,x,1,0.7259562080726027,None,sharanya,001,2023-10-09_12h22.37.184,sequence learning ,2023.2.1,None,2023-10-09 12h22.55.614670 +0530,
150,v,36,1,145,1,,,,,382.6984738749452,,382.6904568329919,382.6984738749452,383.69280541699845,383.69280541699845,383.69280541699845,383.69280541699845,383.69280541699845,384.6902347919531,384.6902347919531,385.0389582919888,v,1,0.34372958296444267,None,sharanya,001,2023-10-09_12h22.37.184,sequence learning ,2023.2.1,None,2023-10-09 12h22.55.614670 +0530,
50,c,36,2,146,2,,,,,385.04849283292424,,385.03978645801544,385.04849283292424,386.0486312919529,386.0486312919529,386.0486312919529,386.0486312919529,386.0659862499451,387.0318872500211,387.0318872500211,387.3490865419153,c,1,0.31465199997182935,None,sharanya,001,2023-10-09_12h22.37.184,sequence learning ,2023.2.1,None,2023-10-09 12h22.55.614670 +0530,
-150,z,36,3,147,3,,,,,387.35595670796465,,387.34990920801647,387.35595670796465,388.34420970792416,388.34420970792416,388.34420970792416,388.34420970792416,388.353328499943,389.34803479199763,389.34803479199763,389.5891322919633,z,1,0.24011783301830292,None,sharanya,001,2023-10-09_12h22.37.184,sequence learning ,2023.2.1,None,2023-10-09 12h22.55.614670 +0530,
-50,x,37,0,148,0,,,,,389.5985580829438,,389.5899603749858,389.5985580829438,390.59229779196903,390.59229779196903,390.59229779196903,390.59229779196903,390.59229779196903,391.5818573749857,391.5818573749857,391.8993156669894,x,1,0.3131114999996498,None,sharanya,001,2023-10-09_12h22.37.184,sequence learning ,2023.2.1,None,2023-10-09 12h22.55.614670 +0530,
150,v,37,1,149,1,,,,,391.90625804197043,,391.9001470829826,391.90625804197043,392.89344862499274,392.89344862499274,392.89344862499274,392.89344862499274,392.90227079193573,393.8986329579493,393.8986329579493,394.25572616700083,v,1,0.35246737499255687,None,sharanya,001,2023-10-09_12h22.37.184,sequence learning ,2023.2.1,None,2023-10-09 12h22.55.614670 +0530,
50,c,37,2,150,2,,,,,394.2653970000101,,394.2565483750077,394.2653970000101,395.25978999992367,395.25978999992367,395.25978999992367,395.25978999992367,395.25978999992367,396.2475605419604,396.2475605419604,396.48912495793775,c,1,0.24061400000937283,None,sharanya,001,2023-10-09_12h22.37.184,sequence learning ,2023.2.1,None,2023-10-09 12h22.55.614670 +0530,
-150,z,37,3,151,3,,,,,396.4986207499169,,396.48995462502353,396.4986207499169,397.49224566691555,397.49224566691555,397.49224566691555,397.49224566691555,397.49224566691555,398.4818822919624,398.4818822919624,398.8726524999365,z,1,0.3847616669954732,None,sharanya,001,2023-10-09_12h22.37.184,sequence learning ,2023.2.1,None,2023-10-09 12h22.55.614670 +0530,
-50,x,38,0,152,0,,,,,398.882063542027,,398.8734814579366,398.882063542027,399.875529916957,399.875529916957,399.875529916957,399.875529916957,399.875529916957,400.86537508293986,400.86537508293986,401.13266245799605,x,1,0.25828554201871157,None,sharanya,001,2023-10-09_12h22.37.184,sequence learning ,2023.2.1,None,2023-10-09 12h22.55.614670 +0530,
150,v,38,1,153,1,,,,,401.13943500001915,,401.133491332992,401.13943500001915,402.1271915829275,402.1271915829275,402.1271915829275,402.1271915829275,402.13617062498815,403.1320340000093,403.1320340000093,403.3725903329905,v,1,0.23409012507181615,None,sharanya,001,2023-10-09_12h22.37.184,sequence learning ,2023.2.1,None,2023-10-09 12h22.55.614670 +0530,
50,c,38,2,154,2,,,,,403.3819720420288,,403.3734224999789,403.3819720420288,404.3823036670219,404.3823036670219,404.3823036670219,404.3823036670219,404.39943687501363,405.3737447919557,405.3737447919557,405.6327511250274,c,1,0.25217283295933157,None,sharanya,001,2023-10-09_12h22.37.184,sequence learning ,2023.2.1,None,2023-10-09 12h22.55.614670 +0530,
-150,z,38,3,155,3,,,,,405.6396626669448,,405.6335817920044,405.6396626669448,406.6270302499179,406.6270302499179,406.6270302499179,406.6270302499179,406.6359917499358,407.63210154196713,407.63210154196713,408.21618570794817,z,1,0.5749392500147223,None,sharanya,001,2023-10-09_12h22.37.184,sequence learning ,2023.2.1,None,2023-10-09 12h22.55.614670 +0530,
-50,x,39,0,156,0,,,,,408.22282420797274,,408.21694433293305,408.22282420797274,409.209945666953,409.209945666953,409.209945666953,409.209945666953,409.2189294999698,410.2154420419829,410.2154420419829,410.6058883749647,x,1,0.38570870901457965,None,sharanya,001,2023-10-09_12h22.37.184,sequence learning ,2023.2.1,None,2023-10-09 12h22.55.614670 +0530,
150,v,39,1,157,1,,,,,410.615419916925,,410.6066542499466,410.615419916925,411.59971662494354,411.59971662494354,411.59971662494354,411.59971662494354,411.60942833300214,412.598788333009,412.598788333009,412.9393736249767,v,1,0.3356330420356244,None,sharanya,001,2023-10-09_12h22.37.184,sequence learning ,2023.2.1,None,2023-10-09 12h22.55.614670 +0530,
50,c,39,2,158,2,,,,,412.94878458301537,,412.94019854196813,412.94878458301537,413.9490983330179,413.9490983330179,413.9490983330179,413.9490983330179,413.9662609579973,414.9409547499381,414.9409547499381,415.28260879195295,c,1,0.3320224159397185,None,sharanya,001,2023-10-09_12h22.37.184,sequence learning ,2023.2.1,None,2023-10-09 12h22.55.614670 +0530,
-150,z,39,3,159,3,,,,,415.28834149998147,,415.28339862497523,415.28834149998147,416.27743749995716,416.27743749995716,416.27743749995716,416.27743749995716,416.28641858301125,417.2734561249381,417.2734561249381,417.68289037502836,z,1,0.4015056249918416,None,sharanya,001,2023-10-09_12h22.37.184,sequence learning ,2023.2.1,None,2023-10-09 12h22.55.614670 +0530,
-50,x,40,0,160,0,,,,,417.68985637498554,,417.68371941696387,417.68985637498554,418.6769428330008,418.6769428330008,418.6769428330008,418.6769428330008,418.6859589579981,419.68215083295945,419.68215083295945,420.5163427919615,x,1,0.8262600000016391,None,sharanya,001,2023-10-09_12h22.37.184,sequence learning ,2023.2.1,None,2023-10-09 12h22.55.614670 +0530,
150,v,40,1,161,1,,,,,420.5232909169281,,420.51717437501065,420.5232909169281,421.5156037500128,421.5156037500128,421.5156037500128,421.5156037500128,421.5251137500163,422.5156307499856,422.5156307499856,423.0231449579587,v,1,0.500873832963407,None,sharanya,001,2023-10-09_12h22.37.184,sequence learning ,2023.2.1,None,2023-10-09 12h22.55.614670 +0530,
50,c,40,2,162,2,,,,,423.0315837080125,,423.02397329197265,423.0315837080125,424.0259562500287,424.0259562500287,424.0259562500287,424.0259562500287,424.0259562500287,425.0150213749148,425.0150213749148,425.3727794169681,c,1,0.35109533299691975,None,sharanya,001,2023-10-09_12h22.37.184,sequence learning ,2023.2.1,None,2023-10-09 12h22.55.614670 +0530,
-150,z,40,3,163,3,,,,,425.3822007079143,,425.3736099170055,425.3822007079143,426.3824011249235,426.3824011249235,426.3824011249235,426.3824011249235,426.39963408291806,427.37403283291496,427.37403283291496,427.7729427500162,z,1,0.39574729197192937,None,sharanya,001,2023-10-09_12h22.37.184,sequence learning ,2023.2.1,None,2023-10-09 12h22.55.614670 +0530,
-50,x,41,0,164,0,,,,,427.7822712919442,,427.7737712919479,427.7822712919442,428.77603141695727,428.77603141695727,428.77603141695727,428.77603141695727,428.77603141695727,429.76563091692515,429.76563091692515,430.46616554202046,x,1,0.6909144170349464,None,sharanya,001,2023-10-09_12h22.37.184,sequence learning ,2023.2.1,None,2023-10-09 12h22.55.614670 +0530,
150,v,41,1,165,1,,,,,430.471903916914,,430.4669971249532,430.471903916914,431.4612944169203,431.4612944169203,431.4612944169203,431.4612944169203,431.4706814169185,432.4656534580281,432.4656534580281,432.74914541700855,v,1,0.2787298330804333,None,sharanya,001,2023-10-09_12h22.37.184,sequence learning ,2023.2.1,None,2023-10-09 12h22.55.614670 +0530,
50,c,41,2,166,2,,,,,432.7562257919926,,432.7499787079869,432.7562257919926,433.7434412499424,433.7434412499424,433.7434412499424,433.7434412499424,433.75239237502683,434.7406288329512,434.7406288329512,435.38878366700374,c,1,0.642842625034973,None,sharanya,001,2023-10-09_12h22.37.184,sequence learning ,2023.2.1,None,2023-10-09 12h22.55.614670 +0530,
-150,z,41,3,167,3,,,,,435.39910149993375,,435.3895602079574,435.39910149993375,436.3991475829389,436.3991475829389,436.3991475829389,436.3991475829389,436.41639762499835,437.38234579202253,437.38234579202253,437.9063753329683,z,1,0.5215533330338076,None,sharanya,001,2023-10-09_12h22.37.184,sequence learning ,2023.2.1,None,2023-10-09 12h22.55.614670 +0530,
-50,x,42,0,168,0,,,,,437.9156766249798,,437.9072033329867,437.9156766249798,438.9097625829745,438.9097625829745,438.9097625829745,438.9097625829745,438.9097625829745,439.8991396250203,439.8991396250203,440.6496261249995,x,1,0.7473068749532104,None,sharanya,001,2023-10-09_12h22.37.184,sequence learning ,2023.2.1,None,2023-10-09 12h22.55.614670 +0530,
150,v,42,1,169,1,,,,,440.65647287492175,,440.6503884169506,440.65647287492175,441.64367549994495,441.64367549994495,441.64367549994495,441.64367549994495,441.6525768749416,442.64095904200803,442.64095904200803,442.99986179196276,v,1,0.3528946250444278,None,sharanya,001,2023-10-09_12h22.37.184,sequence learning ,2023.2.1,None,2023-10-09 12h22.55.614670 +0530,
50,c,42,2,170,2,,,,,443.00671058299486,,443.00068254198413,443.00671058299486,443.9942825830076,443.9942825830076,443.9942825830076,443.9942825830076,444.00319116702303,444.99910916702356,444.99910916702356,445.58961758296937,c,1,0.5880274589871988,None,sharanya,001,2023-10-09_12h22.37.184,sequence learning ,2023.2.1,None,2023-10-09 12h22.55.614670 +0530,
-150,z,42,3,171,3,,,,,445.5984804580221,,445.5903835829813,445.5984804580221,446.5927073749481,446.5927073749481,446.5927073749481,446.5927073749481,446.5927073749481,447.5823259999743,447.5823259999743,447.9495940830093,z,1,0.3644448750419542,None,sharanya,001,2023-10-09_12h22.37.184,sequence learning ,2023.2.1,None,2023-10-09 12h22.55.614670 +0530,
-50,x,43,0,172,0,,,,,447.9562647079583,,447.9504209170118,447.9562647079583,448.94426349992864,448.94426349992864,448.94426349992864,448.94426349992864,448.953165416955,449.9407953749178,449.9407953749178,450.41591708292253,x,1,0.46877116698306054,None,sharanya,001,2023-10-09_12h22.37.184,sequence learning ,2023.2.1,None,2023-10-09 12h22.55.614670 +0530,
150,v,43,1,173,1,,,,,450.42290799994953,,450.4167578750057,450.42290799994953,451.41023979196325,451.41023979196325,451.41023979196325,451.41023979196325,451.4192983750254,452.4073624579469,452.4073624579469,452.7898175419541,v,1,0.38051008398178965,None,sharanya,001,2023-10-09_12h22.37.184,sequence learning ,2023.2.1,None,2023-10-09 12h22.55.614670 +0530,
50,c,43,2,174,2,,,,,452.7986329999985,,452.79063924995717,452.7986329999985,453.7993833749788,453.7993833749788,453.7993833749788,453.7993833749788,453.81663804198615,454.78246462496463,454.78246462496463,455.2396781669231,c,1,0.45259895804338157,None,sharanya,001,2023-10-09_12h22.37.184,sequence learning ,2023.2.1,None,2023-10-09 12h22.55.614670 +0530,
-150,z,43,3,175,3,,,,,455.2491819579154,,455.24051070795394,455.2491819579154,456.24944387492724,456.24944387492724,456.24944387492724,456.24944387492724,456.2664647080237,457.2325415830128,457.2325415830128,457.8833852079697,z,1,0.6501310830935836,None,sharanya,001,2023-10-09_12h22.37.184,sequence learning ,2023.2.1,None,2023-10-09 12h22.55.614670 +0530,
-50,x,44,0,176,0,,,,,457.890379749937,,457.8842067499645,457.890379749937,458.87725512497127,458.87725512497127,458.87725512497127,458.87725512497127,458.8862614169484,459.8825194169767,459.8825194169767,460.34149908297695,x,1,0.4502991670742631,None,sharanya,001,2023-10-09_12h22.37.184,sequence learning ,2023.2.1,None,2023-10-09 12h22.55.614670 +0530,
150,v,44,1,177,1,,,,,460.34924404195044,,460.3423312919913,460.34924404195044,461.34346279199235,461.34346279199235,461.34346279199235,461.34346279199235,461.34346279199235,462.34089762496296,462.34089762496296,462.80674329202157,v,1,0.4596737080719322,None,sharanya,001,2023-10-09_12h22.37.184,sequence learning ,2023.2.1,None,2023-10-09 12h22.55.614670 +0530,
50,c,44,2,178,2,,,,,462.8159764580196,,462.8075635830173,462.8159764580196,463.8099676669808,463.8099676669808,463.8099676669808,463.8099676669808,463.8099676669808,464.80769154196605,464.80769154196605,465.2166987080127,c,1,0.4083186659263447,None,sharanya,001,2023-10-09_12h22.37.184,sequence learning ,2023.2.1,None,2023-10-09 12h22.55.614670 +0530,
-150,z,44,3,179,3,,,,,465.2236398749519,,465.2175157079473,465.2236398749519,466.21073308296036,466.21073308296036,466.21073308296036,466.21073308296036,466.2197214169428,467.21549637499265,467.21549637499265,467.63348670792766,z,1,0.41466170898638666,None,sharanya,001,2023-10-09_12h22.37.184,sequence learning ,2023.2.1,None,2023-10-09 12h22.55.614670 +0530,
-50,x,45,0,180,0,,,,,467.6403782919515,,467.6343089999864,467.6403782919515,468.62771962501574,468.62771962501574,468.62771962501574,468.62771962501574,468.6367479999317,469.63265158294234,469.63265158294234,470.02340812492184,x,1,0.38526979205198586,None,sharanya,001,2023-10-09_12h22.37.184,sequence learning ,2023.2.1,None,2023-10-09 12h22.55.614670 +0530,
150,v,45,1,181,1,,,,,470.03262791701127,,470.0241759169148,470.03262791701127,471.02647779195104,471.02647779195104,471.02647779195104,471.02647779195104,471.02647779195104,472.0159916250268,472.0159916250268,472.37323958298657,v,1,0.3562302499776706,None,sharanya,001,2023-10-09_12h22.37.184,sequence learning ,2023.2.1,None,2023-10-09 12h22.55.614670 +0530,
50,c,45,2,182,2,,,,,472.3827474169666,,472.37406374991406,472.3827474169666,473.3827823329484,473.3827823329484,473.3827823329484,473.3827823329484,473.3999307079939,474.37448012502864,474.37448012502864,474.70668237493373,c,1,0.3304757910082117,None,sharanya,001,2023-10-09_12h22.37.184,sequence learning ,2023.2.1,None,2023-10-09 12h22.55.614670 +0530,
-150,z,45,3,183,3,,,,,474.7159705419326,,474.70752179191913,474.7159705419326,475.70973875001073,475.70973875001073,475.70973875001073,475.70973875001073,475.70973875001073,476.6993703750195,476.6993703750195,477.04946187499445,z,1,0.34403979196213186,None,sharanya,001,2023-10-09_12h22.37.184,sequence learning ,2023.2.1,None,2023-10-09 12h22.55.614670 +0530,
-50,x,46,0,184,0,,,,,477.05634620797355,,477.05031116702594,477.05634620797355,478.04401774995495,478.04401774995495,478.04401774995495,478.04401774995495,478.05309845798183,479.040731749963,479.040731749963,479.8002397919772,x,1,0.74963416706305,None,sharanya,001,2023-10-09_12h22.37.184,sequence learning ,2023.2.1,None,2023-10-09 12h22.55.614670 +0530,
150,v,46,1,185,1,,,,,479.807021082961,,479.80106412491295,479.807021082961,480.79498758295085,480.79498758295085,480.79498758295085,480.79498758295085,480.80403054191265,481.7994520419743,481.7994520419743,482.1499753330136,v,1,0.3414676249958575,None,sharanya,001,2023-10-09_12h22.37.184,sequence learning ,2023.2.1,None,2023-10-09 12h22.55.614670 +0530,
50,c,46,2,186,2,,,,,482.1565912499791,,482.15078983292915,482.1565912499791,483.14455195795745,483.14455195795745,483.14455195795745,483.14455195795745,483.15355970792007,484.1494933749782,484.1494933749782,484.6416390829254,c,1,0.48386941698845476,None,sharanya,001,2023-10-09_12h22.37.184,sequence learning ,2023.2.1,None,2023-10-09 12h22.55.614670 +0530,
-150,z,46,3,187,3,,,,,484.649416500004,,484.64240533299744,484.649416500004,485.6431406670017,485.6431406670017,485.6431406670017,485.6431406670017,485.6431406670017,486.64075795793906,486.64075795793906,487.2916705419775,z,1,0.6424830409232527,None,sharanya,001,2023-10-09_12h22.37.184,sequence learning ,2023.2.1,None,2023-10-09 12h22.55.614670 +0530,
-50,x,47,0,188,0,,,,,487.29936374991667,,487.2924467079574,487.29936374991667,488.29350262496155,488.29350262496155,488.29350262496155,488.29350262496155,488.29350262496155,489.2910969170043,489.2910969170043,489.60015025001485,x,1,0.3049191249301657,None,sharanya,001,2023-10-09_12h22.37.184,sequence learning ,2023.2.1,None,2023-10-09 12h22.55.614670 +0530,
150,v,47,1,189,1,,,,,489.60719399992377,,489.6009807919618,489.60719399992377,490.59421233297326,490.59421233297326,490.59421233297326,490.59421233297326,490.6032711250009,491.5995465830201,491.5995465830201,491.94015320797917,v,1,0.33826587500516325,None,sharanya,001,2023-10-09_12h22.37.184,sequence learning ,2023.2.1,None,2023-10-09 12h22.55.614670 +0530,
50,c,47,2,190,2,,,,,491.94904308300465,,491.9409934579162,491.94904308300465,492.9437777919229,492.9437777919229,492.9437777919229,492.9437777919229,492.9437777919229,493.93301320797764,493.93301320797764,494.32465399999637,c,1,0.383728584041819,None,sharanya,001,2023-10-09_12h22.37.184,sequence learning ,2023.2.1,None,2023-10-09 12h22.55.614670 +0530,
-150,z,47,3,191,3,,,,,494.33280287496746,,494.32548687502276,494.33280287496746,495.3265073749935,495.3265073749935,495.3265073749935,495.3265073749935,495.3265073749935,496.3238492499804,496.3238492499804,496.7005680829752,z,1,0.36828591697849333,None,sharanya,001,2023-10-09_12h22.37.184,sequence learning ,2023.2.1,None,2023-10-09 12h22.55.614670 +0530,
-50,x,48,0,192,0,,,,,496.70779124996625,,496.7014321249444,496.70779124996625,497.7166174169397,497.7166174169397,497.7166174169397,497.7166174169397,497.7336166249588,498.699804832926,498.699804832926,500.09030462498777,x,1,1.3895268749911338,None,sharanya,001,2023-10-09_12h22.37.184,sequence learning ,2023.2.1,None,2023-10-09 12h22.55.614670 +0530,
150,v,48,1,193,1,,,,,500.0996355829993,,500.0911260829307,500.0996355829993,501.09328766702674,501.09328766702674,501.09328766702674,501.09328766702674,501.09328766702674,502.0829011249589,502.0829011249589,502.3738858749857,v,1,0.28794662503059953,None,sharanya,001,2023-10-09_12h22.37.184,sequence learning ,2023.2.1,None,2023-10-09 12h22.55.614670 +0530,
50,c,48,2,194,2,,,,,502.3823540000012,,502.3747095420258,502.3823540000012,503.37688220792916,503.37688220792916,503.37688220792916,503.37688220792916,503.37688220792916,504.3663732080022,504.3663732080022,504.866568874917,c,1,0.49653804197441787,None,sharanya,001,2023-10-09_12h22.37.184,sequence learning ,2023.2.1,None,2023-10-09 12h22.55.614670 +0530,
-150,z,48,3,195,3,,,,,504.8731989170192,,504.86738950002473,504.8731989170192,505.86098483297974,505.86098483297974,505.86098483297974,505.86098483297974,505.87006487499457,506.85787045792677,506.85787045792677,507.51654141698964,z,1,0.6542587080039084,None,sharanya,001,2023-10-09_12h22.37.184,sequence learning ,2023.2.1,None,2023-10-09 12h22.55.614670 +0530,
-50,x,49,0,196,0,,,,,507.52359845791943,,507.5173636249965,507.52359845791943,508.51101395802107,508.51101395802107,508.51101395802107,508.51101395802107,508.52011570800096,509.5079160829773,509.5079160829773,509.9574063749751,x,1,0.44844770804047585,None,sharanya,001,2023-10-09_12h22.37.184,sequence learning ,2023.2.1,None,2023-10-09 12h22.55.614670 +0530,
150,v,49,1,197,1,,,,,509.96632416697685,,509.95829891692847,509.96632416697685,510.96021187491715,510.96021187491715,510.96021187491715,510.96021187491715,510.96021187491715,511.9576231249375,511.9576231249375,512.5903972500237,v,1,0.6294141249964014,None,sharanya,001,2023-10-09_12h22.37.184,sequence learning ,2023.2.1,None,2023-10-09 12h22.55.614670 +0530,
50,c,49,2,198,2,,,,,512.5997176669771,,512.591232332983,512.5997176669771,513.5939399580238,513.5939399580238,513.5939399580238,513.5939399580238,513.5939399580238,514.5825568749569,514.5825568749569,515.3398636669153,c,1,0.7517226670170203,None,sharanya,001,2023-10-09_12h22.37.184,sequence learning ,2023.2.1,None,2023-10-09 12h22.55.614670 +0530,
-150,z,49,3,199,3,,,,,515.3496321670245,,515.3406976669794,515.3496321670245,516.3499270420289,516.3499270420289,516.3499270420289,516.3499270420289,516.3671611249447,517.3330456250114,517.3330456250114,517.939652208006,z,1,0.6015406670048833,None,sharanya,001,2023-10-09_12h22.37.184,sequence learning ,2023.2.1,None,2023-10-09 12h22.55.614670 +0530,
-50,x,,,,,0,0,0,0,517.9549219999462,,517.9461415419355,517.9549219999462,518.9341030829819,518.9341030829819,518.9341030829819,518.9341030829819,518.9535126669798,519.9331174999243,519.9331174999243,520.2733387500048,x,1,0.3378772920696065,None,sharanya,001,2023-10-09_12h22.37.184,sequence learning ,2023.2.1,None,2023-10-09 12h22.55.614670 +0530,
-50,x,,,,,0,1,1,0,520.2830169579247,,520.2744554169476,520.2830169579247,521.2770035000285,521.2770035000285,521.2770035000285,521.2770035000285,521.2770035000285,522.2658523329301,522.2658523329301,523.5171617920278,x,1,1.2439994169399142,None,sharanya,001,2023-10-09_12h22.37.184,sequence learning ,2023.2.1,None,2023-10-09 12h22.55.614670 +0530,
50,c,,,,,0,2,2,2,523.5241135419346,,523.5179379169131,523.5241135419346,524.5111543330131,524.5111543330131,524.5111543330131,524.5111543330131,524.5200777499704,525.5078714579577,525.5078714579577,526.850484207971,c,1,1.336189249996096,None,sharanya,001,2023-10-09_12h22.37.184,sequence learning ,2023.2.1,None,2023-10-09 12h22.55.614670 +0530,
50,c,,,,,0,3,3,2,526.8572127919178,,526.851249499945,526.8572127919178,527.8445219579153,527.8445219579153,527.8445219579153,527.8445219579153,527.8535741670057,528.8487768749474,528.8487768749474,529.7174189169891,c,1,0.8647457079496235,None,sharanya,001,2023-10-09_12h22.37.184,sequence learning ,2023.2.1,None,2023-10-09 12h22.55.614670 +0530,
-150,z,,,,,1,0,4,3,529.7243717919337,,529.7182438329328,529.7243717919337,530.7175680419896,530.7175680419896,530.7175680419896,530.7175680419896,530.7273446669569,531.7165105419699,531.7165105419699,532.4167673329357,z,1,0.6976291669998318,None,sharanya,001,2023-10-09_12h22.37.184,sequence learning ,2023.2.1,None,2023-10-09 12h22.55.614670 +0530,
150,v,,,,,1,1,5,1,532.4223552920157,,532.4175836669747,532.4223552920157,533.4109864999773,533.4109864999773,533.4109864999773,533.4109864999773,533.4199220829178,534.4161266669398,534.4161266669398,535.4836910829181,v,1,1.06441083305981,None,sharanya,001,2023-10-09_12h22.37.184,sequence learning ,2023.2.1,None,2023-10-09 12h22.55.614670 +0530,
50,c,,,,,1,2,6,2,535.4907305829693,,535.4845180829288,535.4907305829693,536.4782847919269,536.4782847919269,536.4782847919269,536.4782847919269,536.4873982500285,537.474970457959,537.474970457959,538.4499605000019,c,1,0.9727836250094697,None,sharanya,001,2023-10-09_12h22.37.184,sequence learning ,2023.2.1,None,2023-10-09 12h22.55.614670 +0530,
150,v,,,,,1,3,7,1,538.4567715419689,,538.4507116249297,538.4567715419689,539.4447058329824,539.4447058329824,539.4447058329824,539.4447058329824,539.4537540830206,540.4405494999373,540.4405494999373,541.2674158749869,v,1,0.8204479580745101,None,sharanya,001,2023-10-09_12h22.37.184,sequence learning ,2023.2.1,None,2023-10-09 12h22.55.614670 +0530,
-50,x,,,,,2,0,8,0,541.2741828329163,,541.2681797919795,541.2741828329163,542.2615226670168,542.2615226670168,542.2615226670168,542.2615226670168,542.2704842919484,543.2662767919246,543.2662767919246,544.2006297499174,x,1,0.9279295410960913,None,sharanya,001,2023-10-09_12h22.37.184,sequence learning ,2023.2.1,None,2023-10-09 12h22.55.614670 +0530,
-50,x,,,,,2,1,9,0,544.2077998329187,,544.2014676249819,544.2077998329187,545.1945044170134,545.1945044170134,545.1945044170134,545.1945044170134,545.2034318749793,546.1910314579727,546.1910314579727,546.9839940000093,x,1,0.7830480829579756,None,sharanya,001,2023-10-09_12h22.37.184,sequence learning ,2023.2.1,None,2023-10-09 12h22.55.614670 +0530,
-150,z,,,,,2,2,10,3,546.9910269170068,,546.9848125829594,546.9910269170068,547.978934166953,547.978934166953,547.978934166953,547.978934166953,547.9880704579409,548.9748771250015,548.9748771250015,549.7506572499406,z,1,0.7719893750036135,None,sharanya,001,2023-10-09_12h22.37.184,sequence learning ,2023.2.1,None,2023-10-09 12h22.55.614670 +0530,
-150,z,,,,,2,3,11,3,549.7574218750233,,549.7514765829546,549.7574218750233,550.7446987079456,550.7446987079456,550.7446987079456,550.7446987079456,550.7535562500125,551.7416497919476,551.7416497919476,552.7336830829736,z,1,0.9834922089939937,None,sharanya,001,2023-10-09_12h22.37.184,sequence learning ,2023.2.1,None,2023-10-09 12h22.55.614670 +0530,
50,c,,,,,3,0,12,2,552.7405017500278,,552.7345227079932,552.7405017500278,553.7279472079827,553.7279472079827,553.7279472079827,553.7279472079827,553.7369563329266,554.7244266249472,554.7244266249472,555.8072784169344,c,1,1.0817910420009866,None,sharanya,001,2023-10-09_12h22.37.184,sequence learning ,2023.2.1,None,2023-10-09 12h22.55.614670 +0530,
-50,x,,,,,3,1,13,0,555.8167027080199,,555.8081014580093,555.8167027080199,556.8112303749658,556.8112303749658,556.8112303749658,556.8112303749658,556.8112303749658,557.8083779169247,557.8083779169247,558.6674360419856,x,1,0.85815187508706,None,sharanya,001,2023-10-09_12h22.37.184,sequence learning ,2023.2.1,None,2023-10-09 12h22.55.614670 +0530,
50,c,,,,,3,2,14,2,558.6744934999151,,558.668257332989,558.6744934999151,559.6614792499458,559.6614792499458,559.6614792499458,559.6614792499458,559.6703356249491,560.658648249926,560.658648249926,561.3344221669249,c,1,0.6750607909634709,None,sharanya,001,2023-10-09_12h22.37.184,sequence learning ,2023.2.1,None,2023-10-09 12h22.55.614670 +0530,
-150,z,,,,,3,3,15,3,561.3414991250029,,561.3352384999162,561.3414991250029,562.3284739169758,562.3284739169758,562.3284739169758,562.3284739169758,562.3367495419225,563.3334060829366,563.3334060829366,564.1340304169571,z,1,0.7961141659179702,None,sharanya,001,2023-10-09_12h22.37.184,sequence learning ,2023.2.1,None,2023-10-09 12h22.55.614670 +0530,
-50,x,,,,,4,0,16,0,564.1408632079838,,564.1348526669899,564.1408632079838,565.1282435830217,565.1282435830217,565.1282435830217,565.1282435830217,565.1371302079642,566.1246934169903,566.1246934169903,566.7903649579966,x,1,0.6602836670354009,None,sharanya,001,2023-10-09_12h22.37.184,sequence learning ,2023.2.1,None,2023-10-09 12h22.55.614670 +0530,
-150,z,,,,,4,1,17,3,566.8001509170281,,566.7911862919573,566.8001509170281,567.8003364999313,567.8003364999313,567.8003364999313,567.8003364999313,567.8174570829142,568.7835162079427,568.7835162079427,569.8508968329988,z,1,1.061107459012419,None,sharanya,001,2023-10-09_12h22.37.184,sequence learning ,2023.2.1,None,2023-10-09 12h22.55.614670 +0530,
-50,x,,,,,4,2,18,0,569.8578930000076,,569.851719749975,569.8578930000076,570.8454537499929,570.8454537499929,570.8454537499929,570.8454537499929,570.8543792919954,571.8419682920212,571.8419682920212,572.4674583330052,x,1,0.6156379169551656,None,sharanya,001,2023-10-09_12h22.37.184,sequence learning ,2023.2.1,None,2023-10-09 12h22.55.614670 +0530,
-50,x,,,,,4,3,19,0,572.4732744169887,,572.468286416959,572.4732744169887,573.4614637920167,573.4614637920167,573.4614637920167,573.4614637920167,573.4704560419777,574.4669737919467,574.4669737919467,575.1675134999678,x,1,0.6973364999284968,None,sharanya,001,2023-10-09_12h22.37.184,sequence learning ,2023.2.1,None,2023-10-09 12h22.55.614670 +0530,
-50,x,,,,,5,0,20,0,575.1744151249295,,575.1683326249477,575.1744151249295,576.1616392079741,576.1616392079741,576.1616392079741,576.1616392079741,576.1708964579739,577.166919457959,577.166919457959,578.1677139169769,x,1,0.9923180830664933,None,sharanya,001,2023-10-09_12h22.37.184,sequence learning ,2023.2.1,None,2023-10-09 12h22.55.614670 +0530,
50,c,,,,,5,1,21,2,578.1747357919812,,578.1685491669923,578.1747357919812,579.16201262502,579.16201262502,579.16201262502,579.16201262502,579.1709612919949,580.167022791924,580.167022791924,581.2417884579627,c,1,1.0741215830203146,None,sharanya,001,2023-10-09_12h22.37.184,sequence learning ,2023.2.1,None,2023-10-09 12h22.55.614670 +0530,
150,v,,,,,5,2,22,1,581.2502319579944,,581.2425516250078,581.2502319579944,582.2439717500238,582.2439717500238,582.2439717500238,582.2439717500238,582.2439717500238,583.2409816249274,583.2409816249274,584.1077120000264,v,1,0.8644654169911519,None,sharanya,001,2023-10-09_12h22.37.184,sequence learning ,2023.2.1,None,2023-10-09 12h22.55.614670 +0530,
-50,x,,,,,5,3,23,0,584.1169640829321,,584.1085498329485,584.1169640829321,585.1173093749676,585.1173093749676,585.1173093749676,585.1173093749676,585.1344771669246,586.1086151249474,586.1086151249474,587.1076056669699,x,1,0.9964179591042921,None,sharanya,001,2023-10-09_12h22.37.184,sequence learning ,2023.2.1,None,2023-10-09 12h22.55.614670 +0530,
150,v,,,,,6,0,24,1,587.1169070419855,,587.1084455830278,587.1169070419855,588.1105566669721,588.1105566669721,588.1105566669721,588.1105566669721,588.1105566669721,589.1004231249681,589.1004231249681,590.0172147919657,v,1,0.9118641660315916,None,sharanya,001,2023-10-09_12h22.37.184,sequence learning ,2023.2.1,None,2023-10-09 12h22.55.614670 +0530,
-150,z,,,,,6,1,25,3,590.0241829579463,,590.0180370829767,590.0241829579463,591.0117613329785,591.0117613329785,591.0117613329785,591.0117613329785,591.0203970419243,592.0083263330162,592.0083263330162,592.7576412919443,z,1,0.7451555830193684,None,sharanya,001,2023-10-09_12h22.37.184,sequence learning ,2023.2.1,None,2023-10-09 12h22.55.614670 +0530,
-50,x,,,,,6,2,26,0,592.7664305419894,,592.7584649999626,592.7664305419894,593.7606514169602,593.7606514169602,593.7606514169602,593.7606514169602,593.7606514169602,594.7503596249735,594.7503596249735,595.6745019579539,x,1,0.9177924580872059,None,sharanya,001,2023-10-09_12h22.37.184,sequence learning ,2023.2.1,None,2023-10-09 12h22.55.614670 +0530,
50,c,,,,,6,3,27,2,595.6832242499804,,595.6753335000249,595.6832242499804,596.6780304999556,596.6780304999556,596.6780304999556,596.6780304999556,596.6780304999556,597.6751340000192,597.6751340000192,598.5241833329201,c,1,0.8447971250861883,None,sharanya,001,2023-10-09_12h22.37.184,sequence learning ,2023.2.1,None,2023-10-09 12h22.55.614670 +0530,
-50,x,,,,,7,0,28,0,598.533704582951,,598.5250079579419,598.533704582951,599.5277899169596,599.5277899169596,599.5277899169596,599.5277899169596,599.5277899169596,600.5171166670043,600.5171166670043,601.3512227499159,x,1,0.8263020830927417,None,sharanya,001,2023-10-09_12h22.37.184,sequence learning ,2023.2.1,None,2023-10-09 12h22.55.614670 +0530,
-50,x,,,,,7,1,29,0,601.3583207079209,,601.3521427499363,601.3583207079209,602.345063042012,602.345063042012,602.345063042012,602.345063042012,602.3540191249922,603.3504489579936,603.3504489579936,604.3577158750268,x,1,1.0023192079970613,None,sharanya,001,2023-10-09_12h22.37.184,sequence learning ,2023.2.1,None,2023-10-09 12h22.55.614670 +0530,
-50,x,,,,,7,2,30,0,604.3671500419732,,604.3585408329964,604.3671500419732,605.3607720829314,605.3607720829314,605.3607720829314,605.3607720829314,605.3607720829314,606.3505051669199,606.3505051669199,607.2238752919948,x,1,0.8696389580145478,None,sharanya,001,2023-10-09_12h22.37.184,sequence learning ,2023.2.1,None,2023-10-09 12h22.55.614670 +0530,
-150,z,,,,,7,3,31,3,607.2333145829616,,607.2247039580252,607.2333145829616,608.2181468330091,608.2181468330091,608.2181468330091,608.2181468330091,608.2279808329185,609.2165957499528,609.2165957499528,610.3929180830019,z,1,1.1675454579526559,None,sharanya,001,2023-10-09_12h22.37.184,sequence learning ,2023.2.1,None,2023-10-09 12h22.55.614670 +0530,
-50,x,,,,,8,0,32,0,610.40043887496,,610.3937554579461,610.40043887496,611.3947504579555,611.3947504579555,611.3947504579555,611.3947504579555,611.3947504579555,612.3922502920032,612.3922502920032,613.0904193749884,x,1,0.692432374926284,None,sharanya,001,2023-10-09_12h22.37.184,sequence learning ,2023.2.1,None,2023-10-09 12h22.55.614670 +0530,
50,c,,,,,8,1,33,2,613.1002085419605,,613.091188749997,613.1002085419605,614.1006246670149,614.1006246670149,614.1006246670149,614.1006246670149,614.117963082972,615.0839679579949,615.0839679579949,616.0741527079372,c,1,0.9854627080494538,None,sharanya,001,2023-10-09_12h22.37.184,sequence learning ,2023.2.1,None,2023-10-09 12h22.55.614670 +0530,
-50,x,,,,,8,2,34,0,616.0839420419652,,616.0749810419511,616.0839420419652,617.0683367080055,617.0683367080055,617.0683367080055,617.0683367080055,617.0779349579243,618.0670079999836,618.0670079999836,618.9577590419212,x,1,0.8841260420158505,None,sharanya,001,2023-10-09_12h22.37.184,sequence learning ,2023.2.1,None,2023-10-09 12h22.55.614670 +0530,
-150,z,,,,,8,3,35,3,618.9671610000078,,618.9585956250085,618.9671610000078,619.9612798750168,619.9612798750168,619.9612798750168,619.9612798750168,619.9612798750168,620.9505877919728,620.9505877919728,621.6845259999391,z,1,0.7296290410449728,None,sharanya,001,2023-10-09_12h22.37.184,sequence learning ,2023.2.1,None,2023-10-09 12h22.55.614670 +0530,
150,v,,,,,9,0,36,1,621.6917210830143,,621.685341082979,621.6917210830143,622.6784836669685,622.6784836669685,622.6784836669685,622.6784836669685,622.6873459579656,623.6838468749775,623.6838468749775,624.5845440829871,v,1,0.8921001669950783,None,sharanya,001,2023-10-09_12h22.37.184,sequence learning ,2023.2.1,None,2023-10-09 12h22.55.614670 +0530,
-50,x,,,,,9,1,37,0,624.5916642079828,,624.585363375023,624.5916642079828,625.5792970419861,625.5792970419861,625.5792970419861,625.5792970419861,625.5882543749176,626.5839460829739,626.5839460829739,627.3680529579287,x,1,0.7747164170723408,None,sharanya,001,2023-10-09_12h22.37.184,sequence learning ,2023.2.1,None,2023-10-09 12h22.55.614670 +0530,
-50,x,,,,,9,2,38,0,627.3749559170101,,627.3688879170222,627.3749559170101,628.3622670419281,628.3622670419281,628.3622670419281,628.3622670419281,628.3715139169944,629.3673003750155,629.3673003750155,630.3079029580113,x,1,0.9371497919782996,None,sharanya,001,2023-10-09_12h22.37.184,sequence learning ,2023.2.1,None,2023-10-09 12h22.55.614670 +0530,
-150,z,,,,,9,3,39,3,630.3168104579672,,630.308722042013,630.3168104579672,631.3175377079751,631.3175377079751,631.3175377079751,631.3175377079751,631.3346772079822,632.30073704198,632.30073704198,633.1245949999429,z,1,0.8192782079568133,None,sharanya,001,2023-10-09_12h22.37.184,sequence learning ,2023.2.1,None,2023-10-09 12h22.55.614670 +0530,
50,c,,,,,10,0,40,2,633.133972999989,,633.1253571669804,633.133972999989,634.1280126249185,634.1280126249185,634.1280126249185,634.1280126249185,634.1280126249185,635.1256287079304,635.1256287079304,635.924520917004,c,1,0.7957531670108438,None,sharanya,001,2023-10-09_12h22.37.184,sequence learning ,2023.2.1,None,2023-10-09 12h22.55.614670 +0530,
150,v,,,,,10,1,41,1,635.9339340829756,,635.9253496669699,635.9339340829756,636.9181423329283,636.9181423329283,636.9181423329283,636.9181423329283,636.9279712919379,637.9173516249284,637.9173516249284,638.6578083329368,v,1,0.7355463339481503,None,sharanya,001,2023-10-09_12h22.37.184,sequence learning ,2023.2.1,None,2023-10-09 12h22.55.614670 +0530,
-150,z,,,,,10,2,42,3,638.6674902079394,,638.6585703329183,638.6674902079394,639.66147945798,639.66147945798,639.66147945798,639.66147945798,639.66147945798,640.6506624169415,640.6506624169415,641.3577045419952,z,1,0.7025383749278262,None,sharanya,001,2023-10-09_12h22.37.184,sequence learning ,2023.2.1,None,2023-10-09 12h22.55.614670 +0530,
-150,z,,,,,10,3,43,3,641.367362332996,,641.3584677079925,641.367362332996,642.3612805829616,642.3612805829616,642.3612805829616,642.3612805829616,642.3612805829616,643.3506154579809,643.3506154579809,644.1014132499695,z,1,0.7443527079885826,None,sharanya,001,2023-10-09_12h22.37.184,sequence learning ,2023.2.1,None,2023-10-09 12h22.55.614670 +0530,
-150,z,,,,,11,0,44,3,644.1085320420098,,644.1022391669685,644.1085320420098,645.0952384999255,645.0952384999255,645.0952384999255,645.0952384999255,645.1042297920212,646.1007622919278,646.1007622919278,646.7679055830231,z,1,0.6618339580018073,None,sharanya,001,2023-10-09_12h22.37.184,sequence learning ,2023.2.1,None,2023-10-09 12h22.55.614670 +0530,
50,c,,,,,11,1,45,2,646.7749448330142,,646.7687464170158,646.7749448330142,647.7620370419463,647.7620370419463,647.7620370419463,647.7620370419463,647.7709795829142,648.7674203329952,648.7674203329952,649.7181390419137,c,1,0.943523499998264,None,sharanya,001,2023-10-09_12h22.37.184,sequence learning ,2023.2.1,None,2023-10-09 12h22.55.614670 +0530,
150,v,,,,,11,2,46,1,649.7250861249631,,649.7189572500065,649.7250861249631,650.7122362080263,650.7122362080263,650.7122362080263,650.7122362080263,650.7207674999954,651.7093902499182,651.7093902499182,652.4012967919698,v,1,0.6831546250032261,None,sharanya,001,2023-10-09_12h22.37.184,sequence learning ,2023.2.1,None,2023-10-09 12h22.55.614670 +0530,
-150,z,,,,,11,3,47,3,652.4081296669319,,652.4021416249452,652.4081296669319,653.3955072920071,653.3955072920071,653.3955072920071,653.3955072920071,653.4048401250038,654.4007800829131,654.4007800829131,655.3748471249128,z,1,0.967810875037685,None,sharanya,001,2023-10-09_12h22.37.184,sequence learning ,2023.2.1,None,2023-10-09 12h22.55.614670 +0530,
-150,z,,,,,12,0,48,3,655.3840865829261,,655.3756787079619,655.3840865829261,656.3686814579414,656.3686814579414,656.3686814579414,656.3686814579414,656.3784520420013,657.3674645830179,657.3674645830179,658.0749023329699,z,1,0.7011752079706639,None,sharanya,001,2023-10-09_12h22.37.184,sequence learning ,2023.2.1,None,2023-10-09 12h22.55.614670 +0530,
50,c,,,,,12,1,49,2,658.0841036249185,,658.0757327500032,658.0841036249185,659.0785949169658,659.0785949169658,659.0785949169658,659.0785949169658,659.0785949169658,660.0675654169172,660.0675654169172,661.0916649999563,c,1,1.0174384999554604,None,sharanya,001,2023-10-09_12h22.37.184,sequence learning ,2023.2.1,None,2023-10-09 12h22.55.614670 +0530,
150,v,,,,,12,2,50,1,661.1008140419144,,661.0924306249944,661.1008140419144,662.0942168330075,662.0942168330075,662.0942168330075,662.0942168330075,662.0942168330075,663.0837627919391,663.0837627919391,663.8848079579184,v,1,0.7969709580065683,None,sharanya,001,2023-10-09_12h22.37.184,sequence learning ,2023.2.1,None,2023-10-09 12h22.55.614670 +0530,
50,c,,,,,12,3,51,2,663.891613041982,,663.8856326249661,663.891613041982,664.8795425000135,664.8795425000135,664.8795425000135,664.8795425000135,664.8889923749957,665.8758587079355,665.8758587079355,666.7916852500057,c,1,0.9136262090178207,None,sharanya,001,2023-10-09_12h22.37.184,sequence learning ,2023.2.1,None,2023-10-09 12h22.55.614670 +0530,
150,v,,,,,13,0,52,1,666.8008298749337,,666.7925167919602,666.8008298749337,667.794553374988,667.794553374988,667.794553374988,667.794553374988,667.794553374988,668.7841985420091,668.7841985420091,669.624401582987,v,1,0.8380837920121849,None,sharanya,001,2023-10-09_12h22.37.184,sequence learning ,2023.2.1,None,2023-10-09 12h22.55.614670 +0530,
-50,x,,,,,13,1,53,0,669.6336588750128,,669.6252384579275,669.6336588750128,670.6282286249334,670.6282286249334,670.6282286249334,670.6282286249334,670.6282286249334,671.6171585830161,671.6171585830161,672.3849586249562,x,1,0.7629154999740422,None,sharanya,001,2023-10-09_12h22.37.184,sequence learning ,2023.2.1,None,2023-10-09 12h22.55.614670 +0530,
-150,z,,,,,13,2,54,3,672.3920942499535,,672.3857798749814,672.3920942499535,673.3787810419453,673.3787810419453,673.3787810419453,673.3787810419453,673.3878117499407,674.3837689999491,674.3837689999491,675.1081642080098,z,1,0.7212492499966174,None,sharanya,001,2023-10-09_12h22.37.184,sequence learning ,2023.2.1,None,2023-10-09 12h22.55.614670 +0530,
-150,z,,,,,13,3,55,3,675.117778667016,,675.1089281250024,675.117778667016,676.1117912079208,676.1117912079208,676.1117912079208,676.1117912079208,676.1117912079208,677.1092382919742,677.1092382919742,677.8349394169636,z,1,0.7178085419582203,None,sharanya,001,2023-10-09_12h22.37.184,sequence learning ,2023.2.1,None,2023-10-09 12h22.55.614670 +0530,
-50,x,,,,,14,0,56,0,677.8419046669733,,677.8357739169151,677.8419046669733,678.8301683749305,678.8301683749305,678.8301683749305,678.8301683749305,678.8417364580091,679.8259773330064,679.8259773330064,680.5182278329739,x,1,0.6841577909654006,None,sharanya,001,2023-10-09_12h22.37.184,sequence learning ,2023.2.1,None,2023-10-09 12h22.55.614670 +0530,
-150,z,,,,,14,1,57,3,680.5248707080027,,680.5190454579424,680.5248707080027,681.51296404202,681.51296404202,681.51296404202,681.51296404202,681.5220298329368,682.5176417499315,682.5176417499315,683.2849887079792,z,1,0.7595050409436226,None,sharanya,001,2023-10-09_12h22.37.184,sequence learning ,2023.2.1,None,2023-10-09 12h22.55.614670 +0530,
-50,x,,,,,14,2,58,0,683.2918558330275,,683.2858078329591,683.2918558330275,684.2797669579741,684.2797669579741,684.2797669579741,684.2797669579741,684.2892322499538,685.2843382079154,685.2843382079154,686.024777582963,x,1,0.7342609170591459,None,sharanya,001,2023-10-09_12h22.37.184,sequence learning ,2023.2.1,None,2023-10-09 12h22.55.614670 +0530,
150,v,,,,,14,3,59,1,686.0337906249333,,686.0255989999278,686.0337906249333,687.0345753330039,687.0345753330039,687.0345753330039,687.0345753330039,687.0517754169414,688.0172192079481,688.0172192079481,689.0414399169385,v,1,1.0232909999322146,None,sharanya,001,2023-10-09_12h22.37.184,sequence learning ,2023.2.1,None,2023-10-09 12h22.55.614670 +0530,
-150,z,,,,,15,0,60,3,689.0511827919399,,689.0422617079457,689.0511827919399,690.0511199579341,690.0511199579341,690.0511199579341,690.0511199579341,690.0684739169665,691.0343219579663,691.0343219579663,691.7516332919477,z,1,0.7109818749595433,None,sharanya,001,2023-10-09_12h22.37.184,sequence learning ,2023.2.1,None,2023-10-09 12h22.55.614670 +0530,
-150,z,,,,,15,1,61,3,691.7585261670174,,691.7524766250281,691.7585261670174,692.7459685829235,692.7459685829235,692.7459685829235,692.7459685829235,692.7548832920147,693.7509798749816,693.7509798749816,694.517945916974,z,1,0.7573624999495223,None,sharanya,001,2023-10-09_12h22.37.184,sequence learning ,2023.2.1,None,2023-10-09 12h22.55.614670 +0530,
-150,z,,,,,15,2,62,3,694.52328187495,,694.5187297079246,694.52328187495,695.5129764169687,695.5129764169687,695.5129764169687,695.5129764169687,695.5219299169257,696.5088279580232,696.5088279580232,697.2586923749186,z,1,0.7469100831076503,None,sharanya,001,2023-10-09_12h22.37.184,sequence learning ,2023.2.1,None,2023-10-09 12h22.55.614670 +0530,
-50,x,,,,,15,3,63,0,697.2677265829407,,697.2595147920074,697.2677265829407,698.2605144579429,698.2605144579429,698.2605144579429,698.2605144579429,698.2605144579429,699.25742954202,699.25742954202,699.9588610830251,x,1,0.6946193750482053,None,sharanya,001,2023-10-09_12h22.37.184,sequence learning ,2023.2.1,None,2023-10-09 12h22.55.614670 +0530,
150,v,,,,,16,0,64,1,699.9678175000008,,699.9597104169661,699.9678175000008,700.9600834170124,700.9600834170124,700.9600834170124,700.9600834170124,700.9600834170124,701.9592027500039,701.9592027500039,702.768048082944,v,1,0.8009265000000596,None,sharanya,001,2023-10-09_12h22.37.184,sequence learning ,2023.2.1,None,2023-10-09 12h22.55.614670 +0530,
-150,z,,,,,16,1,65,3,702.7752529999707,,702.7688929999713,702.7752529999707,703.7630358330207,703.7630358330207,703.7630358330207,703.7630358330207,703.7722884999821,704.759159417008,704.759159417008,705.5351522499695,z,1,0.7673716659191996,None,sharanya,001,2023-10-09_12h22.37.184,sequence learning ,2023.2.1,None,2023-10-09 12h22.55.614670 +0530,
-150,z,,,,,16,2,66,3,705.5421167080058,,705.5360159999691,705.5421167080058,706.5294500419404,706.5294500419404,706.5294500419404,706.5294500419404,706.5381918749772,707.5344367920188,707.5344367920188,708.424717499991,z,1,0.883807749953121,None,sharanya,001,2023-10-09_12h22.37.184,sequence learning ,2023.2.1,None,2023-10-09 12h22.55.614670 +0530,
50,c,,,,,16,3,67,2,708.4339681669371,,708.4254835420288,708.4339681669371,709.4346733749844,709.4346733749844,709.4346733749844,709.4346733749844,709.4519404169405,710.4173029579688,710.4173029579688,711.251557999989,c,1,0.8262406670255587,None,sharanya,001,2023-10-09_12h22.37.184,sequence learning ,2023.2.1,None,2023-10-09 12h22.55.614670 +0530,
150,v,,,,,17,0,68,1,711.2582954999525,,711.2523309999378,711.2582954999525,712.2464650829788,712.2464650829788,712.2464650829788,712.2464650829788,712.2555022499291,713.2414841250284,713.2414841250284,713.9851309580263,v,1,0.7352033340139315,None,sharanya,001,2023-10-09_12h22.37.184,sequence learning ,2023.2.1,None,2023-10-09 12h22.55.614670 +0530,
150,v,,,,,17,1,69,1,713.9917821669951,,713.9859460829757,713.9917821669951,714.9792557079345,714.9792557079345,714.9792557079345,714.9792557079345,714.9882740830071,715.9845266250195,715.9845266250195,716.9351506669773,v,1,0.9453335419530049,None,sharanya,001,2023-10-09_12h22.37.184,sequence learning ,2023.2.1,None,2023-10-09 12h22.55.614670 +0530,
-50,x,,,,,17,2,70,0,716.9419144579442,,716.9359327920247,716.9419144579442,717.9292610419216,717.9292610419216,717.9292610419216,717.9292610419216,717.9381229999708,718.9346120419214,718.9346120419214,719.685312082991,x,1,0.7474072079639882,None,sharanya,001,2023-10-09_12h22.37.184,sequence learning ,2023.2.1,None,2023-10-09 12h22.55.614670 +0530,
50,c,,,,,17,3,71,2,719.692016749992,,719.6861252079252,719.692016749992,720.67926991696,720.67926991696,720.67926991696,720.67926991696,720.6881997080054,721.6845031250268,721.6845031250268,722.4853269999148,c,1,0.7925566659541801,None,sharanya,001,2023-10-09_12h22.37.184,sequence learning ,2023.2.1,None,2023-10-09 12h22.55.614670 +0530,
50,c,,,,,18,0,72,2,722.4919829999562,,722.4861528750043,722.4919829999562,723.4797179999296,723.4797179999296,723.4797179999296,723.4797179999296,723.4885451250011,724.4845086249989,724.4845086249989,725.3685436249943,c,1,0.8765445410972461,None,sharanya,001,2023-10-09_12h22.37.184,sequence learning ,2023.2.1,None,2023-10-09 12h22.55.614670 +0530,
150,v,,,,,18,1,73,1,725.3755012080073,,725.3693681249861,725.3755012080073,726.3632243749453,726.3632243749453,726.3632243749453,726.3632243749453,726.3722254579188,727.3595472919988,727.3595472919988,728.1514635420172,v,1,0.7881221669958904,None,sharanya,001,2023-10-09_12h22.37.184,sequence learning ,2023.2.1,None,2023-10-09 12h22.55.614670 +0530,
-150,z,,,,,18,2,74,3,728.1584116249578,,728.1522822079714,728.1584116249578,729.1465539999772,729.1465539999772,729.1465539999772,729.1465539999772,729.1555119999684,730.142611874966,730.142611874966,730.9588798750192,z,1,0.8096312080742791,None,sharanya,001,2023-10-09_12h22.37.184,sequence learning ,2023.2.1,None,2023-10-09 12h22.55.614670 +0530,
-150,z,,,,,18,3,75,3,730.9678618329344,,730.9597029170254,730.9678618329344,731.9615183749702,731.9615183749702,731.9615183749702,731.9615183749702,731.9615183749702,732.9512430829927,732.9512430829927,733.7416732920101,z,1,0.7870133749675006,None,sharanya,001,2023-10-09_12h22.37.184,sequence learning ,2023.2.1,None,2023-10-09 12h22.55.614670 +0530,
-50,x,,,,,19,0,76,0,733.7512994579738,,733.7424452919513,733.7512994579738,734.7457104169298,734.7457104169298,734.7457104169298,734.7457104169298,734.7457104169298,735.7428933749907,735.7428933749907,736.4519975829171,x,1,0.7064099580748007,None,sharanya,001,2023-10-09_12h22.37.184,sequence learning ,2023.2.1,None,2023-10-09 12h22.55.614670 +0530,
-150,z,,,,,19,1,77,3,736.4590019999305,,736.4528120419709,736.4590019999305,737.4457781249657,737.4457781249657,737.4457781249657,737.4457781249657,737.4547162079252,738.4512489580084,738.4512489580084,739.4253042499768,z,1,0.9694832920795307,None,sharanya,001,2023-10-09_12h22.37.184,sequence learning ,2023.2.1,None,2023-10-09 12h22.55.614670 +0530,
150,v,,,,,19,2,78,1,739.4345929579576,,739.4261277079349,739.4345929579576,740.4349062499823,740.4349062499823,740.4349062499823,740.4349062499823,740.4515333749587,741.4259713329375,741.4259713329375,742.2684375420213,v,1,0.8378492079209536,None,sharanya,001,2023-10-09_12h22.37.184,sequence learning ,2023.2.1,None,2023-10-09 12h22.55.614670 +0530,
-150,z,,,,,19,3,79,3,742.2755296250107,,742.2692606669152,742.2755296250107,743.2630389579572,743.2630389579572,743.2630389579572,743.2630389579572,743.2719597920077,744.2596611250192,744.2596611250192,745.1686783329351,z,1,0.9060659590177238,None,sharanya,001,2023-10-09_12h22.37.184,sequence learning ,2023.2.1,None,2023-10-09 12h22.55.614670 +0530,
50,c,,,,,20,0,80,2,745.1753699579276,,745.1695034579607,745.1753699579276,746.162730208016,746.162730208016,746.162730208016,746.162730208016,746.1716673750198,747.167993583018,747.167993583018,747.9251016669441,c,1,0.7531127919210121,None,sharanya,001,2023-10-09_12h22.37.184,sequence learning ,2023.2.1,None,2023-10-09 12h22.55.614670 +0530,
