study_words,con,test_words,cond,trials.thisRepN,trials.thisTrialN,trials.thisN,trials.thisIndex,trials_2.thisRepN,trials_2.thisTrialN,trials_2.thisN,trials_2.thisIndex,thisRow.t,notes,trial.started,Fixation.started,studytext.started,slider.started,Fixation.stopped,trial.stopped,slider.response,slider.rt,instruction.started,text_2.started,text_2.stopped,instruction.stopped,test.started,text.started,key_resp.started,test.stopped,key_resp.keys,key_resp.rt,key_resp.duration,participant,session,date,expName,psychopyVersion,frameRate,expStart,
Mariah Carey,c,,,0,0,0,15,,,,,0.027842416981002316,,0.014190707996021956,0.027842416981002316,1.0144883329921868,1.0144883329921868,1.0253451669996139,6.835961957986001,1,6.802111875003902,,,,,,,,,,,,Participant 3 Saanjaly,001,2023-11-26_13h10.42.376,soloprojectsharanya,2023.2.1,120.92989139881966,2023-11-26 13h11.21.803012 +0530,
George Bush,cs,,,0,1,1,8,,,,,6.848856791999424,,6.836337332992116,6.848856791999424,7.842427958006738,7.842427958006738,7.8532567500078585,8.769464416982373,1,1.9122795419825707,,,,,,,,,,,,Participant 3 Saanjaly,001,2023-11-26_13h10.42.376,soloprojectsharanya,2023.2.1,120.92989139881966,2023-11-26 13h11.21.803012 +0530,
Robin Cook,cs,,,0,2,2,2,,,,,8.781772541988175,,8.769698666990735,8.781772541988175,9.776156249979977,9.776156249979977,9.787076791981235,10.552695708000101,1,1.7625842919806018,,,,,,,,,,,,Participant 3 Saanjaly,001,2023-11-26_13h10.42.376,soloprojectsharanya,2023.2.1,120.92989139881966,2023-11-26 13h11.21.803012 +0530,
Christiano Ronaldo,c,,,0,3,3,13,,,,,10.56462766698678,,10.552932874998078,10.56462766698678,11.559024416987086,11.559024416987086,11.569658207998145,14.735666791995754,1,4.165453333000187,,,,,,,,,,,,Participant 3 Saanjaly,001,2023-11-26_13h10.42.376,soloprojectsharanya,2023.2.1,120.92989139881966,2023-11-26 13h11.21.803012 +0530,
Tom Cruise,cs,,,0,4,4,4,,,,,14.747292416985147,,14.735887582995929,14.747292416985147,15.742138208006509,15.742138208006509,15.75297958299052,16.585988374979934,1,1.8306073749845382,,,,,,,,,,,,Participant 3 Saanjaly,001,2023-11-26_13h10.42.376,soloprojectsharanya,2023.2.1,120.92989139881966,2023-11-26 13h11.21.803012 +0530,
Rachel Green,cs,,,0,5,5,7,,,,,16.597678916994482,,16.586224792001303,16.597678916994482,17.592284249985823,17.592284249985823,17.60323704199982,18.46944774998701,1,1.8637736660020892,,,,,,,,,,,,Participant 3 Saanjaly,001,2023-11-26_13h10.42.376,soloprojectsharanya,2023.2.1,120.92989139881966,2023-11-26 13h11.21.803012 +0530,
Amelia O'Brien,un,,,0,6,6,19,,,,,18.481710583000677,,18.46966845798306,18.481710583000677,19.475407374993665,19.475407374993665,19.486713374993997,22.218959332996747,4.951111111111111,3.7294125420157798,,,,,,,,,,,,Participant 3 Saanjaly,001,2023-11-26_13h10.42.376,soloprojectsharanya,2023.2.1,120.92989139881966,2023-11-26 13h11.21.803012 +0530,
Dwayne Johnson,c,,,0,7,7,11,,,,,22.230851500004064,,22.219220875005703,22.230851500004064,23.22603520800476,23.22603520800476,23.23711133300094,25.23592199999257,1.0755555555555556,2.999085167015437,,,,,,,,,,,,Participant 3 Saanjaly,001,2023-11-26_13h10.42.376,soloprojectsharanya,2023.2.1,120.92989139881966,2023-11-26 13h11.21.803012 +0530,
Kate Winslow,c,,,0,8,8,10,,,,,25.247515875002136,,25.236144916998455,25.247515875002136,26.24130024999613,26.24130024999613,26.25309145799838,27.702585457998794,5,2.4469095829990692,,,,,,,,,,,,Participant 3 Saanjaly,001,2023-11-26_13h10.42.376,soloprojectsharanya,2023.2.1,120.92989139881966,2023-11-26 13h11.21.803012 +0530,
Terrence Peterson,un,,,0,9,9,22,,,,,27.713811499997973,,27.702807416993892,27.713811499997973,28.708839708007872,28.708839708007872,28.722112582996488,32.769638541998575,5,5.04847308297758,,,,,,,,,,,,Participant 3 Saanjaly,001,2023-11-26_13h10.42.376,soloprojectsharanya,2023.2.1,120.92989139881966,2023-11-26 13h11.21.803012 +0530,
Allan Carter,un,,,0,10,10,23,,,,,32.78015558299376,,32.76987399999052,32.78015558299376,33.77642412498244,33.77642412498244,33.78731474999222,35.13646300000255,5,2.3475582500104792,,,,,,,,,,,,Participant 3 Saanjaly,001,2023-11-26_13h10.42.376,soloprojectsharanya,2023.2.1,120.92989139881966,2023-11-26 13h11.21.803012 +0530,
James Bond,cs,,,0,11,11,6,,,,,35.147175332996994,,35.136687249992974,35.147175332996994,36.14349887499702,36.14349887499702,36.154365666996455,37.91995854198467,1,2.764401042019017,,,,,,,,,,,,Participant 3 Saanjaly,001,2023-11-26_13h10.42.376,soloprojectsharanya,2023.2.1,120.92989139881966,2023-11-26 13h11.21.803012 +0530,
Vin Diesel,cs,,,0,12,12,1,,,,,37.93125374999363,,37.920193041994935,37.93125374999363,38.92430416698335,38.92430416698335,38.950804332998814,40.68736874999013,1,2.746934124996187,,,,,,,,,,,,Participant 3 Saanjaly,001,2023-11-26_13h10.42.376,soloprojectsharanya,2023.2.1,120.92989139881966,2023-11-26 13h11.21.803012 +0530,
daniel carr,un,,,0,13,13,17,,,,,40.69825658298214,,40.68760391700198,40.69825658298214,41.69460058299592,41.69460058299592,41.70551866700407,43.2701962919964,5,2.563707749999594,,,,,,,,,,,,Participant 3 Saanjaly,001,2023-11-26_13h10.42.376,soloprojectsharanya,2023.2.1,120.92989139881966,2023-11-26 13h11.21.803012 +0530,
Jennifer Aniston,c,,,0,14,14,16,,,,,43.280553457996575,,43.27042945800349,43.280553457996575,44.27638883300824,44.27638883300824,44.288147166982526,46.104118457995355,1,2.8136896670039278,,,,,,,,,,,,Participant 3 Saanjaly,001,2023-11-26_13h10.42.376,soloprojectsharanya,2023.2.1,120.92989139881966,2023-11-26 13h11.21.803012 +0530,
Emma Stone,cs,,,0,15,15,5,,,,,46.11615266700392,,46.10435270800372,46.11615266700392,47.11052341698087,47.11052341698087,47.121870417002356,47.819611916987924,1,1.6958922910271212,,,,,,,,,,,,Participant 3 Saanjaly,001,2023-11-26_13h10.42.376,soloprojectsharanya,2023.2.1,120.92989139881966,2023-11-26 13h11.21.803012 +0530,
Lindsay Lohan,c,,,0,16,16,14,,,,,47.83108312499826,,47.819848541985266,47.83108312499826,48.82619175000582,48.82619175000582,48.83754524998949,49.57021345800604,1,1.7308867500105407,,,,,,,,,,,,Participant 3 Saanjaly,001,2023-11-26_13h10.42.376,soloprojectsharanya,2023.2.1,120.92989139881966,2023-11-26 13h11.21.803012 +0530,
Halle Berry,cs,,,0,17,17,0,,,,,49.581067207996966,,49.570449249993544,49.581067207996966,50.57641049998347,50.57641049998347,50.58790662500542,51.354354332986986,1,1.7631218339956831,,,,,,,,,,,,Participant 3 Saanjaly,001,2023-11-26_13h10.42.376,soloprojectsharanya,2023.2.1,120.92989139881966,2023-11-26 13h11.21.803012 +0530,
Garcia Rodiguez,un,,,0,18,18,21,,,,,51.366101082996465,,51.35458762498456,51.366101082996465,52.359814708004706,52.359814708004706,52.37062779199914,55.10424058299395,4.995555555555556,3.7289043339842465,,,,,,,,,,,,Participant 3 Saanjaly,001,2023-11-26_13h10.42.376,soloprojectsharanya,2023.2.1,120.92989139881966,2023-11-26 13h11.21.803012 +0530,
oliver murphy ,un,,,0,19,19,18,,,,,55.11634750000667,,55.10447616700549,55.11634750000667,56.110762583004544,56.110762583004544,56.12167883300572,58.43733975000214,5,3.3125938329903875,,,,,,,,,,,,Participant 3 Saanjaly,001,2023-11-26_13h10.42.376,soloprojectsharanya,2023.2.1,120.92989139881966,2023-11-26 13h11.21.803012 +0530,
Rita Mulaney,un,,,0,20,20,20,,,,,58.4476416670077,,58.43757587499567,58.4476416670077,59.4442171669798,59.4442171669798,59.455180582997855,61.02073695798754,5,2.563906750001479,,,,,,,,,,,,Participant 3 Saanjaly,001,2023-11-26_13h10.42.376,soloprojectsharanya,2023.2.1,120.92989139881966,2023-11-26 13h11.21.803012 +0530,
Stephen King,cs,,,0,21,21,3,,,,,61.0310794999823,,61.02097366700764,61.0310794999823,62.02648420800688,62.02648420800688,62.038085832988145,64.40394487499725,1,3.361751958000241,,,,,,,,,,,,Participant 3 Saanjaly,001,2023-11-26_13h10.42.376,soloprojectsharanya,2023.2.1,120.92989139881966,2023-11-26 13h11.21.803012 +0530,
John Legend,cs,,,0,22,22,9,,,,,64.41480549998232,,64.40417883300688,64.41480549998232,65.4101596249966,65.4101596249966,65.42148533300497,67.10372029198334,1.1022222222222222,2.680556582985446,,,,,,,,,,,,Participant 3 Saanjaly,001,2023-11-26_13h10.42.376,soloprojectsharanya,2023.2.1,120.92989139881966,2023-11-26 13h11.21.803012 +0530,
Oprah Winfer,c,,,0,23,23,12,,,,,67.11464687500848,,67.10395558300661,67.11464687500848,68.1109929170052,68.1109929170052,68.12183433299651,69.97035391698591,1.12,2.8473908329906408,,,,,,,,,,,,Participant 3 Saanjaly,001,2023-11-26_13h10.42.376,soloprojectsharanya,2023.2.1,120.92989139881966,2023-11-26 13h11.21.803012 +0530,
,,Legend,cwp,,,,,0,0,0,7,77.98300816700794,,,,,,,,,,69.97050370799843,69.97578870799043,77.98300816700794,77.9592235419841,77.97450162499445,78.9682440419856,78.9682440419856,79.94297020797967,y,0.9416756659920793,None,Participant 3 Saanjaly,001,2023-11-26_13h10.42.376,soloprojectsharanya,2023.2.1,120.92989139881966,2023-11-26 13h11.21.803012 +0530,
,,laptop,cwu,,,,,0,1,1,14,79.95768262498314,,,,,,,,,,,,,,79.94389687498915,80.94436883300659,80.94436883300659,81.40320470798179,y,0.4574605420057196,None,Participant 3 Saanjaly,001,2023-11-26_13h10.42.376,soloprojectsharanya,2023.2.1,120.92989139881966,2023-11-26 13h11.21.803012 +0530,
,,Bush,cwp,,,,,0,2,2,6,81.41528829198796,,,,,,,,,,,,,,81.40391916700173,82.40173149999464,82.40173149999464,83.18586662499001,y,0.7812167080119252,None,Participant 3 Saanjaly,001,2023-11-26_13h10.42.376,soloprojectsharanya,2023.2.1,120.92989139881966,2023-11-26 13h11.21.803012 +0530,
,,Dispel,cwu,,,,,0,3,3,12,83.19701995799551,,,,,,,,,,,,,,83.18651654198766,84.17791154200677,84.17791154200677,85.08620404198882,n,0.9046751660062,None,Participant 3 Saanjaly,001,2023-11-26_13h10.42.376,soloprojectsharanya,2023.2.1,120.92989139881966,2023-11-26 13h11.21.803012 +0530,
,,Green,cwp,,,,,0,4,4,5,85.0976337500033,,,,,,,,,,,,,,85.08691166699282,86.078364416986,86.078364416986,87.00327733298764,y,0.9167484999925364,None,Participant 3 Saanjaly,001,2023-11-26_13h10.42.376,soloprojectsharanya,2023.2.1,120.92989139881966,2023-11-26 13h11.21.803012 +0530,
,,abary,pw,,,,,0,5,5,17,87.01438516698545,,,,,,,,,,,,,,87.00399658299284,88.00180404199637,88.00180404199637,88.93649683299009,n,0.933468958013691,None,Participant 3 Saanjaly,001,2023-11-26_13h10.42.376,soloprojectsharanya,2023.2.1,120.92989139881966,2023-11-26 13h11.21.803012 +0530,
,,Callous,cwu,,,,,0,6,6,9,88.94843845799915,,,,,,,,,,,,,,88.93719591698027,89.93530529199052,89.93530529199052,90.94318287499482,y,1.002599375002319,None,Participant 3 Saanjaly,001,2023-11-26_13h10.42.376,soloprojectsharanya,2023.2.1,120.92989139881966,2023-11-26 13h11.21.803012 +0530,
,,infrate,pw,,,,,0,7,7,26,90.95493862498552,,,,,,,,,,,,,,90.94387345798896,91.94430462497985,91.94430462497985,92.76968612498604,n,0.8219775840116199,None,Participant 3 Saanjaly,001,2023-11-26_13h10.42.376,soloprojectsharanya,2023.2.1,120.92989139881966,2023-11-26 13h11.21.803012 +0530,
,,demical,pw,,,,,0,8,8,19,92.7811912499892,,,,,,,,,,,,,,92.770393416984,93.76065816698247,93.76065816698247,94.77012695799931,n,1.0081495420017745,None,Participant 3 Saanjaly,001,2023-11-26_13h10.42.376,soloprojectsharanya,2023.2.1,120.92989139881966,2023-11-26 13h11.21.803012 +0530,
,,thrade,pw,,,,,0,9,9,16,94.7816874999844,,,,,,,,,,,,,,94.7708260419895,95.76865179199376,95.76865179199376,96.90994079198572,n,1.1376075409934856,None,Participant 3 Saanjaly,001,2023-11-26_13h10.42.376,soloprojectsharanya,2023.2.1,120.92989139881966,2023-11-26 13h11.21.803012 +0530,
,,banc,pw,,,,,0,10,10,27,96.92107466698508,,,,,,,,,,,,,,96.91065337500186,97.91096162499161,97.91096162499161,98.5933817079931,n,0.6800860410148744,None,Participant 3 Saanjaly,001,2023-11-26_13h10.42.376,soloprojectsharanya,2023.2.1,120.92989139881966,2023-11-26 13h11.21.803012 +0530,
,,contrivial,pw,,,,,0,11,11,31,98.60490149998805,,,,,,,,,,,,,,98.59396454200032,99.59350420799456,99.59350420799456,100.60415341699263,n,1.0093282499874476,None,Participant 3 Saanjaly,001,2023-11-26_13h10.42.376,soloprojectsharanya,2023.2.1,120.92989139881966,2023-11-26 13h11.21.803012 +0530,
,,Stone,cwp,,,,,0,12,12,4,100.61543375000474,,,,,,,,,,,,,,100.6048501250043,101.60213291700347,101.60213291700347,102.47997566699632,y,0.8670422089926433,None,Participant 3 Saanjaly,001,2023-11-26_13h10.42.376,soloprojectsharanya,2023.2.1,120.92989139881966,2023-11-26 13h11.21.803012 +0530,
,,Bullock ,cwu,,,,,0,13,13,8,102.48854616700555,,,,,,,,,,,,,,102.48069195798598,103.47844554198673,103.47844554198673,104.12008979200618,y,0.6328215409885161,None,Participant 3 Saanjaly,001,2023-11-26_13h10.42.376,soloprojectsharanya,2023.2.1,120.92989139881966,2023-11-26 13h11.21.803012 +0530,
,,Cruise,cwp,,,,,0,14,14,3,104.13164504198357,,,,,,,,,,,,,,104.12067454200587,105.11888804199407,105.11888804199407,106.2703743329912,y,1.146690833993489,None,Participant 3 Saanjaly,001,2023-11-26_13h10.42.376,soloprojectsharanya,2023.2.1,120.92989139881966,2023-11-26 13h11.21.803012 +0530,
,,Cajole,cwu,,,,,0,15,15,10,106.28329979200498,,,,,,,,,,,,,,106.2710713330016,107.26941675000126,107.26941675000126,108.12685904200771,n,0.8559992499940563,None,Participant 3 Saanjaly,001,2023-11-26_13h10.42.376,soloprojectsharanya,2023.2.1,120.92989139881966,2023-11-26 13h11.21.803012 +0530,
,,Diesel,cwp,,,,,0,16,16,0,108.13787624999532,,,,,,,,,,,,,,108.127543916984,109.12806979200104,109.12806979200104,110.00972941698274,y,0.8756368750182446,None,Participant 3 Saanjaly,001,2023-11-26_13h10.42.376,soloprojectsharanya,2023.2.1,120.92989139881966,2023-11-26 13h11.21.803012 +0530,
,,gweet,pw,,,,,0,17,17,24,110.02145666698925,,,,,,,,,,,,,,110.01041679200716,111.01188195799477,111.01188195799477,111.87017237499822,n,0.8569582920172252,None,Participant 3 Saanjaly,001,2023-11-26_13h10.42.376,soloprojectsharanya,2023.2.1,120.92989139881966,2023-11-26 13h11.21.803012 +0530,
,,hoory,pw,,,,,0,18,18,29,111.88151424998068,,,,,,,,,,,,,,111.87086920798174,112.86184916700586,112.86184916700586,113.8368973750039,n,0.9673698330007028,None,Participant 3 Saanjaly,001,2023-11-26_13h10.42.376,soloprojectsharanya,2023.2.1,120.92989139881966,2023-11-26 13h11.21.803012 +0530,
,,biled,pw,,,,,0,19,19,30,113.84804412498488,,,,,,,,,,,,,,113.83760241698474,114.83585304199369,114.83585304199369,115.91050679198815,n,1.0714606660185382,None,Participant 3 Saanjaly,001,2023-11-26_13h10.42.376,soloprojectsharanya,2023.2.1,120.92989139881966,2023-11-26 13h11.21.803012 +0530,
,,King,cwp,,,,,0,20,20,2,115.92129862500587,,,,,,,,,,,,,,115.91121220798232,116.9110307499941,116.9110307499941,117.63712291698903,y,0.7213235840026755,None,Participant 3 Saanjaly,001,2023-11-26_13h10.42.376,soloprojectsharanya,2023.2.1,120.92989139881966,2023-11-26 13h11.21.803012 +0530,
,,Cook,cwp,,,,,0,21,21,1,117.6486416249827,,,,,,,,,,,,,,117.63782229198841,118.63608454199857,118.63608454199857,119.12705729200388,y,0.4884614160109777,None,Participant 3 Saanjaly,001,2023-11-26_13h10.42.376,soloprojectsharanya,2023.2.1,120.92989139881966,2023-11-26 13h11.21.803012 +0530,
,,poing,pw,,,,,0,22,22,28,119.13871483298135,,,,,,,,,,,,,,119.12776124998345,120.12871791698853,120.12871791698853,120.59355424999376,n,0.46007545801694505,None,Participant 3 Saanjaly,001,2023-11-26_13h10.42.376,soloprojectsharanya,2023.2.1,120.92989139881966,2023-11-26 13h11.21.803012 +0530,
,,Sniff,cwu,,,,,0,23,23,15,120.60539924999466,,,,,,,,,,,,,,120.59425100000226,121.59546162499464,121.59546162499464,122.47043570800452,n,0.8650020000059158,None,Participant 3 Saanjaly,001,2023-11-26_13h10.42.376,soloprojectsharanya,2023.2.1,120.92989139881966,2023-11-26 13h11.21.803012 +0530,
,,ciphere,pw,,,,,0,24,24,18,122.48159229199518,,,,,,,,,,,,,,122.47113433299819,123.46154916699743,123.46154916699743,124.76052570799948,n,1.2953355410136282,None,Participant 3 Saanjaly,001,2023-11-26_13h10.42.376,soloprojectsharanya,2023.2.1,120.92989139881966,2023-11-26 13h11.21.803012 +0530,
,,Aquity,cwu,,,,,0,25,25,11,124.7732965000032,,,,,,,,,,,,,,124.76121941700694,125.7614892499987,125.7614892499987,126.85356120800134,y,1.0826126250030939,None,Participant 3 Saanjaly,001,2023-11-26_13h10.42.376,soloprojectsharanya,2023.2.1,120.92989139881966,2023-11-26 13h11.21.803012 +0530,
,,hawyk,pw,,,,,0,26,26,25,126.86534474999644,,,,,,,,,,,,,,126.85425358300563,127.84523941698717,127.84523941698717,128.71998283299035,n,0.866241292009363,None,Participant 3 Saanjaly,001,2023-11-26_13h10.42.376,soloprojectsharanya,2023.2.1,120.92989139881966,2023-11-26 13h11.21.803012 +0530,
,,frambos,pw,,,,,0,27,27,21,128.73047808298725,,,,,,,,,,,,,,128.72067524999147,129.7118935000035,129.7118935000035,130.91035233298317,n,1.1915014580008574,None,Participant 3 Saanjaly,001,2023-11-26_13h10.42.376,soloprojectsharanya,2023.2.1,120.92989139881966,2023-11-26 13h11.21.803012 +0530,
,,Spouse,cwu,,,,,0,28,28,13,130.92180508299498,,,,,,,,,,,,,,130.91104583299602,131.91104295800324,131.91104295800324,132.84684504198958,y,0.9255267499829642,None,Participant 3 Saanjaly,001,2023-11-26_13h10.42.376,soloprojectsharanya,2023.2.1,120.92989139881966,2023-11-26 13h11.21.803012 +0530,
,,gesting,pw,,,,,0,29,29,23,132.85624354198808,,,,,,,,,,,,,,132.8475457500026,133.84498341698782,133.84498341698782,134.84396966698114,n,0.9952634170185775,None,Participant 3 Saanjaly,001,2023-11-26_13h10.42.376,soloprojectsharanya,2023.2.1,120.92989139881966,2023-11-26 13h11.21.803012 +0530,
,,exsess,pw,,,,,0,30,30,20,134.85635804198682,,,,,,,,,,,,,,134.8446665829979,135.84418179199565,135.84418179199565,137.2043163329945,n,1.3501906669989694,None,Participant 3 Saanjaly,001,2023-11-26_13h10.42.376,soloprojectsharanya,2023.2.1,120.92989139881966,2023-11-26 13h11.21.803012 +0530,
,,fuguil,pw,,,,,0,31,31,22,137.21537391698803,,,,,,,,,,,,,,137.20502762499382,138.20287799998187,138.20287799998187,139.30388525000308,n,1.0981038750032894,None,Participant 3 Saanjaly,001,2023-11-26_13h10.42.376,soloprojectsharanya,2023.2.1,120.92989139881966,2023-11-26 13h11.21.803012 +0530,
