study_words,con,test_words,cond,trials.thisRepN,trials.thisTrialN,trials.thisN,trials.thisIndex,trials_2.thisRepN,trials_2.thisTrialN,trials_2.thisN,trials_2.thisIndex,thisRow.t,notes,trial.started,Fixation.started,studytext.started,slider.started,Fixation.stopped,trial.stopped,slider.response,slider.rt,studytext.stopped,instruction.started,text_2.started,text_2.stopped,instruction.stopped,test.started,text.started,key_resp.started,test.stopped,key_resp.keys,key_resp.rt,key_resp.duration,participant,session,date,expName,psychopyVersion,frameRate,expStart,
Mariah Carey,c,,,0,0,0,15,,,,,0.027451083005871624,,0.014273500011768192,0.027451083005871624,1.024615458009066,1.024615458009066,1.0355190410045907,3.696383083006367,1,3.662594250024995,,,,,,,,,,,,,Participant 4 Meghna,001,2023-11-26_13h15.56.306,soloprojectsharanya,2023.2.1,120.95122139319686,2023-11-26 13h16.15.906689 +0530,
Allan Carter,un,,,0,1,1,23,,,,,3.7083679159986787,,3.69673166598659,3.7083679159986787,4.71478416598984,4.71478416598984,4.727372583001852,9.379978375014616,4.031111111111111,5.663160958007211,,,,,,,,,,,,,Participant 4 Meghna,001,2023-11-26_13h15.56.306,soloprojectsharanya,2023.2.1,120.95122139319686,2023-11-26 13h16.15.906689 +0530,
George Bush,cs,,,0,2,2,8,,,,,9.392657582997344,,9.380211415991653,9.392657582997344,10.397377832996426,10.397377832996426,10.410797165997792,11.96325987498858,1.0266666666666666,2.5623274999961723,,,,,,,,,,,,,Participant 4 Meghna,001,2023-11-26_13h15.56.306,soloprojectsharanya,2023.2.1,120.95122139319686,2023-11-26 13h16.15.906689 +0530,
Amelia O'Brien,un,,,0,3,3,19,,,,,11.975260790990433,,11.963481457991293,11.975260790990433,12.981091749999905,12.981091749999905,12.994272540992824,15.38047187498887,4.964444444444444,3.3961705840192735,,,,,,,,,,,,,Participant 4 Meghna,001,2023-11-26_13h15.56.306,soloprojectsharanya,2023.2.1,120.95122139319686,2023-11-26 13h16.15.906689 +0530,
Vin Diesel,cs,,,0,4,4,1,,,,,15.392609083006391,,15.380701290996512,15.392609083006391,16.397474208002677,16.397474208002677,16.41094291600166,18.313389249989996,1.0355555555555556,2.912872500019148,,,,,,,,,,,,,Participant 4 Meghna,001,2023-11-26_13h15.56.306,soloprojectsharanya,2023.2.1,120.95122139319686,2023-11-26 13h16.15.906689 +0530,
daniel carr,un,,,0,5,5,17,,,,,18.32461554100155,,18.313609957986046,18.32461554100155,19.330072624987224,19.330072624987224,19.34436420799466,22.363444624992553,3.986666666666667,4.030287083005533,,,,,,,,,,,,,Participant 4 Meghna,001,2023-11-26_13h15.56.306,soloprojectsharanya,2023.2.1,120.95122139319686,2023-11-26 13h16.15.906689 +0530,
oliver murphy ,un,,,0,6,6,18,,,,,22.37560445800773,,22.363675083004637,22.37560445800773,23.380835957999807,23.380835957999807,23.39440133300377,27.397012915986124,4.9911111111111115,5.013718458008952,,,,,,,,,,,,,Participant 4 Meghna,001,2023-11-26_13h15.56.306,soloprojectsharanya,2023.2.1,120.95122139319686,2023-11-26 13h16.15.906689 +0530,
Stephen King,cs,,,0,7,7,3,,,,,27.408335499989334,,27.39723266600049,27.408335499989334,28.414759290986694,28.414759290986694,28.427891875006026,30.413612875010585,1.0044444444444445,2.996474000014132,,,,,,,,,,,,,Participant 4 Meghna,001,2023-11-26_13h15.56.306,soloprojectsharanya,2023.2.1,120.95122139319686,2023-11-26 13h16.15.906689 +0530,
James Bond,cs,,,0,8,8,6,,,,,30.424706082994817,,30.41382883299957,30.424706082994817,31.430585499998415,31.430585499998415,31.444598790985765,32.697049165988574,1.0044444444444445,2.2639614999934565,,,,,,,,,,,,,Participant 4 Meghna,001,2023-11-26_13h15.56.306,soloprojectsharanya,2023.2.1,120.95122139319686,2023-11-26 13h16.15.906689 +0530,
John Legend,cs,,,0,9,9,9,,,,,32.70788362500025,,32.69728100000066,32.70788362500025,33.714524749986595,33.714524749986595,33.72794841599534,34.447111124987714,1.0044444444444445,1.7306004999845754,,,,,,,,,,,,,Participant 4 Meghna,001,2023-11-26_13h15.56.306,soloprojectsharanya,2023.2.1,120.95122139319686,2023-11-26 13h16.15.906689 +0530,
Tom Cruise,cs,,,0,10,10,4,,,,,34.457969250011956,,34.44733183301287,34.457969250011956,35.4649992499908,35.4649992499908,35.47807149999426,36.09677800000645,1.0044444444444445,1.6300707499904092,,,,,,,,,,,,,Participant 4 Meghna,001,2023-11-26_13h15.56.306,soloprojectsharanya,2023.2.1,120.95122139319686,2023-11-26 13h16.15.906689 +0530,
Emma Stone,cs,,,0,11,11,5,,,,,36.108193124993704,,36.09703666600399,36.108193124993704,37.11458454100648,37.11458454100648,37.12799962499412,38.847247833007714,1.0044444444444445,2.73026637500152,,,,,,,,,,,,,Participant 4 Meghna,001,2023-11-26_13h15.56.306,soloprojectsharanya,2023.2.1,120.95122139319686,2023-11-26 13h16.15.906689 +0530,
Rachel Green,cs,,,0,12,12,7,,,,,38.85884500000975,,38.84746525000082,38.85884500000975,39.86452062500757,39.86452062500757,39.8780598329904,40.780751790996874,1.0044444444444445,1.911562832974596,,,,,,,,,,,,,Participant 4 Meghna,001,2023-11-26_13h15.56.306,soloprojectsharanya,2023.2.1,120.95122139319686,2023-11-26 13h16.15.906689 +0530,
Oprah Winfer,c,,,0,13,13,12,,,,,40.79306395800086,,40.78098174999468,40.79306395800086,41.79760616598651,41.79760616598651,41.81141537500662,52.48141283300356,1.0222222222222221,11.677256958995713,49.801013749995036,,,,,,,,,,,,Participant 4 Meghna,001,2023-11-26_13h15.56.306,soloprojectsharanya,2023.2.1,120.95122139319686,2023-11-26 13h16.15.906689 +0530,
Christiano Ronaldo,c,,,0,14,14,13,,,,,52.4922139160044,,52.48166029099957,52.4922139160044,53.49661458301125,53.49661458301125,53.512285250006244,55.69759279099526,1.008888888888889,3.1966376249911264,,,,,,,,,,,,,Participant 4 Meghna,001,2023-11-26_13h15.56.306,soloprojectsharanya,2023.2.1,120.95122139319686,2023-11-26 13h16.15.906689 +0530,
Dwayne Johnson,c,,,0,15,15,11,,,,,55.70846649998566,,55.69782370800385,55.70846649998566,56.714688375010155,56.714688375010155,56.72842204099288,57.41412679100176,1.008888888888889,1.697486166987801,,,,,,,,,,,,,Participant 4 Meghna,001,2023-11-26_13h15.56.306,soloprojectsharanya,2023.2.1,120.95122139319686,2023-11-26 13h16.15.906689 +0530,
Jennifer Aniston,c,,,0,16,16,16,,,,,57.424190833000466,,57.414343874988845,57.424190833000466,58.43179141599103,58.43179141599103,58.44512449999456,59.56424020801205,1.008888888888889,2.130818375007948,,,,,,,,,,,,,Participant 4 Meghna,001,2023-11-26_13h15.56.306,soloprojectsharanya,2023.2.1,120.95122139319686,2023-11-26 13h16.15.906689 +0530,
Kate Winslow,c,,,0,17,17,10,,,,,59.57488529098919,,59.564469291013665,59.57488529098919,60.58246445801342,60.58246445801342,60.59466750000138,63.397593333007535,3.0,3.8144461670017336,,,,,,,,,,,,,Participant 4 Meghna,001,2023-11-26_13h15.56.306,soloprojectsharanya,2023.2.1,120.95122139319686,2023-11-26 13h16.15.906689 +0530,
Garcia Rodiguez,un,,,0,18,18,21,,,,,63.40870916598942,,63.397809999994934,63.40870916598942,64.41143141599605,64.41143141599605,64.4216414160037,66.46435383299831,4.9911111111111115,3.0468899160041474,,,,,,,,,,,,,Participant 4 Meghna,001,2023-11-26_13h15.56.306,soloprojectsharanya,2023.2.1,120.95122139319686,2023-11-26 13h16.15.906689 +0530,
Terrence Peterson,un,,,0,19,19,22,,,,,66.47550566599239,,66.46458329100278,66.47550566599239,67.48138333301176,67.48138333301176,67.49524700001348,68.48138549999567,4.9911111111111115,1.9976371669908985,,,,,,,,,,,,,Participant 4 Meghna,001,2023-11-26_13h15.56.306,soloprojectsharanya,2023.2.1,120.95122139319686,2023-11-26 13h16.15.906689 +0530,
Robin Cook,cs,,,0,20,20,2,,,,,68.49296791601228,,68.48161537499982,68.49296791601228,69.49834099999862,69.49834099999862,69.51196179099497,76.98156466599903,1.991111111111111,8.479494875005912,,,,,,,,,,,,,Participant 4 Meghna,001,2023-11-26_13h15.56.306,soloprojectsharanya,2023.2.1,120.95122139319686,2023-11-26 13h16.15.906689 +0530,
Halle Berry,cs,,,0,21,21,0,,,,,76.99235483299708,,76.98178220799309,76.99235483299708,77.99650862498675,77.99650862498675,78.01260904100491,80.89782183300122,1.0266666666666666,3.8964374999923166,,,,,,,,,,,,,Participant 4 Meghna,001,2023-11-26_13h15.56.306,soloprojectsharanya,2023.2.1,120.95122139319686,2023-11-26 13h16.15.906689 +0530,
Rita Mulaney,un,,,0,22,22,20,,,,,80.90866320801433,,80.89805608300958,80.90866320801433,81.91436487500323,81.91436487500323,81.92909491600585,86.13157458300702,2.017777777777778,5.212499208981171,,,,,,,,,,,,,Participant 4 Meghna,001,2023-11-26_13h15.56.306,soloprojectsharanya,2023.2.1,120.95122139319686,2023-11-26 13h16.15.906689 +0530,
Lindsay Lohan,c,,,0,23,23,14,,,,,86.14275895801256,,86.13182254100684,86.14275895801256,87.1489824159944,87.1489824159944,87.1622431660071,89.29917375001241,1,3.147170333977556,,,,,,,,,,,,,Participant 4 Meghna,001,2023-11-26_13h15.56.306,soloprojectsharanya,2023.2.1,120.95122139319686,2023-11-26 13h16.15.906689 +0530,
,,hoory,pw,,,,,0,0,0,29,97.3204257079924,,,,,,,,,,,89.29931920798845,89.30410700000357,97.3204257079924,97.29688562499359,97.31213245799881,98.30478891599341,98.30478891599341,100.89046066600713,n,2.555509375000838,None,Participant 4 Meghna,001,2023-11-26_13h15.56.306,soloprojectsharanya,2023.2.1,120.95122139319686,2023-11-26 13h16.15.906689 +0530,
,,demical,pw,,,,,0,1,1,19,100.90531908298726,,,,,,,,,,,,,,,100.89138445799472,101.89606762499898,101.89606762499898,103.94759762499598,n,2.050280750001548,None,Participant 4 Meghna,001,2023-11-26_13h15.56.306,soloprojectsharanya,2023.2.1,120.95122139319686,2023-11-26 13h16.15.906689 +0530,
,,Spouse,cwu,,,,,0,2,2,13,103.9589691250003,,,,,,,,,,,,,,,103.94828154100105,104.95593674998963,104.95593674998963,106.44776279100915,y,1.4905383329896722,None,Participant 4 Meghna,001,2023-11-26_13h15.56.306,soloprojectsharanya,2023.2.1,120.95122139319686,2023-11-26 13h16.15.906689 +0530,
,,exsess,pw,,,,,0,3,3,20,106.45992608301458,,,,,,,,,,,,,,,106.44839437500923,107.45593237501453,107.45593237501453,108.57045333299902,n,1.1107596249785274,None,Participant 4 Meghna,001,2023-11-26_13h15.56.306,soloprojectsharanya,2023.2.1,120.95122139319686,2023-11-26 13h16.15.906689 +0530,
,,Bullock ,cwu,,,,,0,4,4,8,108.58186700000078,,,,,,,,,,,,,,,108.57114733298658,109.57187220800552,109.57187220800552,110.93071354099084,y,1.3497067499847617,None,Participant 4 Meghna,001,2023-11-26_13h15.56.306,soloprojectsharanya,2023.2.1,120.95122139319686,2023-11-26 13h16.15.906689 +0530,
,,Dispel,cwu,,,,,0,5,5,12,110.94264033299987,,,,,,,,,,,,,,,110.93142466599238,111.9387419160048,111.9387419160048,114.2808074580098,y,2.338122332992498,None,Participant 4 Meghna,001,2023-11-26_13h15.56.306,soloprojectsharanya,2023.2.1,120.95122139319686,2023-11-26 13h16.15.906689 +0530,
,,laptop,cwu,,,,,0,6,6,14,114.29263716601417,,,,,,,,,,,,,,,114.281501999998,115.28807866599527,115.28807866599527,116.42024204100017,y,1.1274104159965646,None,Participant 4 Meghna,001,2023-11-26_13h15.56.306,soloprojectsharanya,2023.2.1,120.95122139319686,2023-11-26 13h16.15.906689 +0530,
,,infrate,pw,,,,,0,7,7,26,116.43131095799617,,,,,,,,,,,,,,,116.42081962499651,117.42180291601107,117.42180291601107,118.93788833299186,n,1.5133862090006005,None,Participant 4 Meghna,001,2023-11-26_13h15.56.306,soloprojectsharanya,2023.2.1,120.95122139319686,2023-11-26 13h16.15.906689 +0530,
,,ciphere,pw,,,,,0,8,8,18,118.9490073749912,,,,,,,,,,,,,,,118.93846783300978,119.93919875001302,119.93919875001302,121.68758529098704,n,1.7448300000105519,None,Participant 4 Meghna,001,2023-11-26_13h15.56.306,soloprojectsharanya,2023.2.1,120.95122139319686,2023-11-26 13h16.15.906689 +0530,
,,Legend,cwp,,,,,0,9,9,7,121.69847866598866,,,,,,,,,,,,,,,121.68815649999306,122.68939895799849,122.68939895799849,123.58777133299736,y,0.8924221659835894,None,Participant 4 Meghna,001,2023-11-26_13h15.56.306,soloprojectsharanya,2023.2.1,120.95122139319686,2023-11-26 13h16.15.906689 +0530,
,,Bush,cwp,,,,,0,10,10,6,123.60077737498796,,,,,,,,,,,,,,,123.58846516598715,124.5887878749927,124.5887878749927,125.21461250001448,y,0.6246862919942942,None,Participant 4 Meghna,001,2023-11-26_13h15.56.306,soloprojectsharanya,2023.2.1,120.95122139319686,2023-11-26 13h16.15.906689 +0530,
,,frambos,pw,,,,,0,11,11,21,125.22635849998915,,,,,,,,,,,,,,,125.21529525000369,126.22202549999929,126.22202549999929,127.03768275000039,n,0.812850582995452,None,Participant 4 Meghna,001,2023-11-26_13h15.56.306,soloprojectsharanya,2023.2.1,120.95122139319686,2023-11-26 13h16.15.906689 +0530,
,,contrivial,pw,,,,,0,12,12,31,127.05011020798702,,,,,,,,,,,,,,,127.03838045799057,128.0396480000054,128.0396480000054,132.23733037500642,y,4.19474225002341,None,Participant 4 Meghna,001,2023-11-26_13h15.56.306,soloprojectsharanya,2023.2.1,120.95122139319686,2023-11-26 13h16.15.906689 +0530,
,,Aquity,cwu,,,,,0,13,13,11,132.24963999999454,,,,,,,,,,,,,,,132.2379254999978,133.23912858299445,133.23912858299445,134.3712983749865,n,1.1256270829762798,None,Participant 4 Meghna,001,2023-11-26_13h15.56.306,soloprojectsharanya,2023.2.1,120.95122139319686,2023-11-26 13h16.15.906689 +0530,
,,hawyk,pw,,,,,0,14,14,25,134.3826151250105,,,,,,,,,,,,,,,134.3720098749909,135.3726812909881,135.3726812909881,138.197750249994,n,2.8173189160006586,None,Participant 4 Meghna,001,2023-11-26_13h15.56.306,soloprojectsharanya,2023.2.1,120.95122139319686,2023-11-26 13h16.15.906689 +0530,
,,Cruise,cwp,,,,,0,15,15,3,138.20844124999712,,,,,,,,,,,,,,,138.1983452909917,139.20579124998767,139.20579124998767,139.90461870800937,y,0.6975255830038805,None,Participant 4 Meghna,001,2023-11-26_13h15.56.306,soloprojectsharanya,2023.2.1,120.95122139319686,2023-11-26 13h16.15.906689 +0530,
,,thrade,pw,,,,,0,16,16,16,139.9163610000105,,,,,,,,,,,,,,,139.9053148330131,140.90504837498884,140.90504837498884,142.40447004098678,n,1.4963812499772757,None,Participant 4 Meghna,001,2023-11-26_13h15.56.306,soloprojectsharanya,2023.2.1,120.95122139319686,2023-11-26 13h16.15.906689 +0530,
,,King,cwp,,,,,0,17,17,2,142.41605775000062,,,,,,,,,,,,,,,142.40505587498774,143.405964665988,143.405964665988,144.07115274999524,y,0.6620823749981355,None,Participant 4 Meghna,001,2023-11-26_13h15.56.306,soloprojectsharanya,2023.2.1,120.95122139319686,2023-11-26 13h16.15.906689 +0530,
,,Green,cwp,,,,,0,18,18,5,144.08204670800478,,,,,,,,,,,,,,,144.0717553329887,145.0731885000132,145.0731885000132,145.8312394579989,y,0.7532756669970695,None,Participant 4 Meghna,001,2023-11-26_13h15.56.306,soloprojectsharanya,2023.2.1,120.95122139319686,2023-11-26 13h16.15.906689 +0530,
,,Callous,cwu,,,,,0,19,19,9,145.84265462501207,,,,,,,,,,,,,,,145.83193929100526,146.83858529099962,146.83858529099962,148.2313183750084,y,1.3865879999939352,None,Participant 4 Meghna,001,2023-11-26_13h15.56.306,soloprojectsharanya,2023.2.1,120.95122139319686,2023-11-26 13h16.15.906689 +0530,
,,fuguil,pw,,,,,0,20,20,22,148.24284566601273,,,,,,,,,,,,,,,148.23188795801252,149.23868570799823,149.23868570799823,150.13838683298673,n,0.8984118750086054,None,Participant 4 Meghna,001,2023-11-26_13h15.56.306,soloprojectsharanya,2023.2.1,120.95122139319686,2023-11-26 13h16.15.906689 +0530,
,,Sniff,cwu,,,,,0,21,21,15,150.14995712498785,,,,,,,,,,,,,,,150.13907633299823,151.14006412500748,151.14006412500748,152.63773658301216,y,1.491118167003151,None,Participant 4 Meghna,001,2023-11-26_13h15.56.306,soloprojectsharanya,2023.2.1,120.95122139319686,2023-11-26 13h16.15.906689 +0530,
,,biled,pw,,,,,0,22,22,30,152.64859695799532,,,,,,,,,,,,,,,152.63830445799977,153.63987129100133,153.63987129100133,155.3978177079989,n,1.753606583981309,None,Participant 4 Meghna,001,2023-11-26_13h15.56.306,soloprojectsharanya,2023.2.1,120.95122139319686,2023-11-26 13h16.15.906689 +0530,
,,Cook,cwp,,,,,0,23,23,1,155.4092363330128,,,,,,,,,,,,,,,155.39849879100802,156.40661154099507,156.40661154099507,157.09747637499822,y,0.6818752919789404,None,Participant 4 Meghna,001,2023-11-26_13h15.56.306,soloprojectsharanya,2023.2.1,120.95122139319686,2023-11-26 13h16.15.906689 +0530,
,,abary,pw,,,,,0,24,24,17,157.10853908301215,,,,,,,,,,,,,,,157.09819250000874,158.1054252499889,158.1054252499889,159.564368249994,n,1.4557369579852093,None,Participant 4 Meghna,001,2023-11-26_13h15.56.306,soloprojectsharanya,2023.2.1,120.95122139319686,2023-11-26 13h16.15.906689 +0530,
,,Cajole,cwu,,,,,0,25,25,10,159.57650533301057,,,,,,,,,,,,,,,159.56492924998747,160.5727853749995,160.5727853749995,161.6485071660136,y,1.0715012910077348,None,Participant 4 Meghna,001,2023-11-26_13h15.56.306,soloprojectsharanya,2023.2.1,120.95122139319686,2023-11-26 13h16.15.906689 +0530,
,,banc,pw,,,,,0,26,26,27,161.65928712498862,,,,,,,,,,,,,,,161.64918462501373,162.65625112500857,162.65625112500857,164.08159583300585,n,1.4169548749923706,None,Participant 4 Meghna,001,2023-11-26_13h15.56.306,soloprojectsharanya,2023.2.1,120.95122139319686,2023-11-26 13h16.15.906689 +0530,
,,gesting,pw,,,,,0,27,27,23,164.09392958300305,,,,,,,,,,,,,,,164.08229408299667,165.08894529100507,165.08894529100507,167.42176945798565,n,2.32828512499691,None,Participant 4 Meghna,001,2023-11-26_13h15.56.306,soloprojectsharanya,2023.2.1,120.95122139319686,2023-11-26 13h16.15.906689 +0530,
,,Stone,cwp,,,,,0,28,28,4,167.43324533299892,,,,,,,,,,,,,,,167.42247270801454,168.42293545798748,168.42293545798748,169.09740274999058,y,0.6683408750104718,None,Participant 4 Meghna,001,2023-11-26_13h15.56.306,soloprojectsharanya,2023.2.1,120.95122139319686,2023-11-26 13h16.15.906689 +0530,
,,poing,pw,,,,,0,29,29,28,169.10855674999766,,,,,,,,,,,,,,,169.09809254101128,170.1064514160098,170.1064514160098,172.78852500001085,y,2.680665667023277,None,Participant 4 Meghna,001,2023-11-26_13h15.56.306,soloprojectsharanya,2023.2.1,120.95122139319686,2023-11-26 13h16.15.906689 +0530,
,,Diesel,cwp,,,,,0,30,30,0,172.80010133300675,,,,,,,,,,,,,,,172.78922100001364,173.78933616599534,173.78933616599534,174.3655137080059,y,0.5747809169988614,None,Participant 4 Meghna,001,2023-11-26_13h15.56.306,soloprojectsharanya,2023.2.1,120.95122139319686,2023-11-26 13h16.15.906689 +0530,
,,gweet,pw,,,,,0,31,31,24,174.37704175000545,,,,,,,,,,,,,,,174.36620504100574,175.3725431250059,175.3725431250059,177.04907595799887,n,1.675265625002794,None,Participant 4 Meghna,001,2023-11-26_13h15.56.306,soloprojectsharanya,2023.2.1,120.95122139319686,2023-11-26 13h16.15.906689 +0530,
