study_words,con,test_words,cond,trials.thisRepN,trials.thisTrialN,trials.thisN,trials.thisIndex,trials_2.thisRepN,trials_2.thisTrialN,trials_2.thisN,trials_2.thisIndex,thisRow.t,notes,trial.started,Fixation.started,studytext.started,slider.started,Fixation.stopped,trial.stopped,slider.response,slider.rt,instruction.started,text_2.started,text_2.stopped,instruction.stopped,test.started,text.started,key_resp.started,test.stopped,key_resp.keys,key_resp.rt,key_resp.duration,participant,session,date,expName,psychopyVersion,frameRate,expStart,
James Bond,cs,,,0,0,0,6,,,,,0.0276238749793265,,0.015297665988327935,0.0276238749793265,1.0204161249857862,1.0204161249857862,1.031364707974717,7.284627457993338,1.0177777777777777,7.249943667004118,,,,,,,,,,,,Participant 9 Bhavya,001,2023-11-26_16h11.47.368,soloprojectsharanya,2023.2.1,None,2023-11-26 16h12.06.706272 +0530,
Emma Stone,cs,,,0,1,1,5,,,,,7.296517624985427,,7.285039207985392,7.296517624985427,8.293642790988088,8.293642790988088,8.307385957974475,10.230600957991555,1.0177777777777777,2.930236749991309,,,,,,,,,,,,Participant 9 Bhavya,001,2023-11-26_16h11.47.368,soloprojectsharanya,2023.2.1,None,2023-11-26 16h12.06.706272 +0530,
Christiano Ronaldo,c,,,0,2,2,13,,,,,10.243519832991296,,10.230821374978404,10.243519832991296,11.232884332974209,11.232884332974209,11.2440257499984,12.675855832989328,1.0222222222222221,2.425996874982957,,,,,,,,,,,,Participant 9 Bhavya,001,2023-11-26_16h11.47.368,soloprojectsharanya,2023.2.1,None,2023-11-26 16h12.06.706272 +0530,
daniel carr,un,,,0,3,3,17,,,,,12.687266415974591,,12.676076124975225,12.687266415974591,13.683461207983783,13.683461207983783,13.694374915998196,16.463202082988573,3.9733333333333336,3.772104208008386,,,,,,,,,,,,Participant 9 Bhavya,001,2023-11-26_16h11.47.368,soloprojectsharanya,2023.2.1,None,2023-11-26 16h12.06.706272 +0530,
John Legend,cs,,,0,4,4,9,,,,,16.474510332976934,,16.46342495799763,16.474510332976934,17.46727041597478,17.46727041597478,17.47819008299848,20.259270582988393,4.915555555555556,3.778200624976307,,,,,,,,,,,,Participant 9 Bhavya,001,2023-11-26_16h11.47.368,soloprojectsharanya,2023.2.1,None,2023-11-26 16h12.06.706272 +0530,
Rita Mulaney,un,,,0,5,5,20,,,,,20.27161712499219,,20.259507707989542,20.27161712499219,21.263249457988422,21.263249457988422,21.273568040982354,23.89306745797512,3.942222222222222,3.6148909170005936,,,,,,,,,,,,Participant 9 Bhavya,001,2023-11-26_16h11.47.368,soloprojectsharanya,2023.2.1,None,2023-11-26 16h12.06.706272 +0530,
Kate Winslow,c,,,0,6,6,10,,,,,23.904583457973786,,23.89328824999393,23.904583457973786,24.89967820799211,24.89967820799211,24.91086720797466,27.959925665985793,4.777777777777778,4.048178708006162,,,,,,,,,,,,Participant 9 Bhavya,001,2023-11-26_16h11.47.368,soloprojectsharanya,2023.2.1,None,2023-11-26 16h12.06.706272 +0530,
Terrence Peterson,un,,,0,7,7,22,,,,,27.97183783299988,,27.960145915974863,27.97183783299988,28.965349624981172,28.965349624981172,28.97682574999635,31.12623904098291,4.004444444444444,3.147675124986563,,,,,,,,,,,,Participant 9 Bhavya,001,2023-11-26_16h11.47.368,soloprojectsharanya,2023.2.1,None,2023-11-26 16h12.06.706272 +0530,
Allan Carter,un,,,0,8,8,23,,,,,31.138068374973955,,31.126461457984988,31.138068374973955,32.13340779099963,32.13340779099963,32.14472237500013,34.347561540984316,4.964444444444444,3.2058833749906626,,,,,,,,,,,,Participant 9 Bhavya,001,2023-11-26_16h11.47.368,soloprojectsharanya,2023.2.1,None,2023-11-26 16h12.06.706272 +0530,
Vin Diesel,cs,,,0,9,9,1,,,,,34.375255290971836,,34.347793540975545,34.375255290971836,35.34828470798675,35.34828470798675,35.3751526659762,37.48064424999757,1.0,3.117530417017406,,,,,,,,,,,,Participant 9 Bhavya,001,2023-11-26_16h11.47.368,soloprojectsharanya,2023.2.1,None,2023-11-26 16h12.06.706272 +0530,
Robin Cook,cs,,,0,10,10,2,,,,,37.50819212498027,,37.48086416599108,37.50819212498027,38.480740749975666,38.480740749975666,38.501465874986025,40.01013379098731,5,2.510822250013007,,,,,,,,,,,,Participant 9 Bhavya,001,2023-11-26_16h11.47.368,soloprojectsharanya,2023.2.1,None,2023-11-26 16h12.06.706272 +0530,
Garcia Rodiguez,un,,,0,11,11,21,,,,,40.02187945798505,,40.01036683298298,40.02187945798505,41.01708954098285,41.01708954098285,41.02811508299783,43.74371749997954,4.004444444444444,3.714092833979521,,,,,,,,,,,,Participant 9 Bhavya,001,2023-11-26_16h11.47.368,soloprojectsharanya,2023.2.1,None,2023-11-26 16h12.06.706272 +0530,
Tom Cruise,cs,,,0,12,12,4,,,,,43.75399670799379,,43.743954499979736,43.75399670799379,44.74905195797328,44.74905195797328,44.76039824998588,46.313285790994996,1,2.554941833979683,,,,,,,,,,,,Participant 9 Bhavya,001,2023-11-26_16h11.47.368,soloprojectsharanya,2023.2.1,None,2023-11-26 16h12.06.706272 +0530,
Amelia O'Brien,un,,,0,13,13,19,,,,,46.324839749984676,,46.31351099998574,46.324839749984676,47.316621915990254,47.316621915990254,47.32807083299849,50.743327374977525,1.9866666666666666,4.411829791002674,,,,,,,,,,,,Participant 9 Bhavya,001,2023-11-26_16h11.47.368,soloprojectsharanya,2023.2.1,None,2023-11-26 16h12.06.706272 +0530,
Halle Berry,cs,,,0,14,14,0,,,,,50.75535058300011,,50.74355049998849,50.75535058300011,51.75150541597395,51.75150541597395,51.762569207989145,54.610209957987536,4.884444444444444,3.848450124991359,,,,,,,,,,,,Participant 9 Bhavya,001,2023-11-26_16h11.47.368,soloprojectsharanya,2023.2.1,None,2023-11-26 16h12.06.706272 +0530,
Lindsay Lohan,c,,,0,15,15,14,,,,,54.62043691598228,,54.61044545797631,54.62043691598228,55.617730624973774,55.617730624973774,55.62919116599369,57.977321082988055,4.875555555555556,3.349202792014694,,,,,,,,,,,,Participant 9 Bhavya,001,2023-11-26_16h11.47.368,soloprojectsharanya,2023.2.1,None,2023-11-26 16h12.06.706272 +0530,
Mariah Carey,c,,,0,16,16,15,,,,,57.98746145798941,,57.977542874985375,57.98746145798941,58.98418987498735,58.98418987498735,58.99516658298671,59.8439524579735,4.875555555555556,1.8485400830104481,,,,,,,,,,,,Participant 9 Bhavya,001,2023-11-26_16h11.47.368,soloprojectsharanya,2023.2.1,None,2023-11-26 16h12.06.706272 +0530,
Oprah Winfer,c,,,0,17,17,12,,,,,59.85547108299215,,59.84417212498374,59.85547108299215,60.8494577909878,60.8494577909878,60.86067541598459,62.560140374989714,1.008888888888889,2.69847404101165,,,,,,,,,,,,Participant 9 Bhavya,001,2023-11-26_16h11.47.368,soloprojectsharanya,2023.2.1,None,2023-11-26 16h12.06.706272 +0530,
Jennifer Aniston,c,,,0,18,18,16,,,,,62.57100258299033,,62.5603619159956,62.57100258299033,63.567102582979714,63.567102582979714,63.57859258298413,64.81436474999646,1.04,2.239525082986802,,,,,,,,,,,,Participant 9 Bhavya,001,2023-11-26_16h11.47.368,soloprojectsharanya,2023.2.1,None,2023-11-26 16h12.06.706272 +0530,
George Bush,cs,,,0,19,19,8,,,,,64.82506279097288,,64.81458412497886,64.82506279097288,65.81697458299459,65.81697458299459,65.82854550000047,66.83371445798548,1.04,2.0038188330072444,,,,,,,,,,,,Participant 9 Bhavya,001,2023-11-26_16h11.47.368,soloprojectsharanya,2023.2.1,None,2023-11-26 16h12.06.706272 +0530,
Stephen King,cs,,,0,20,20,3,,,,,66.84418016599375,,66.83395204099361,66.84418016599375,67.84464358299738,67.84464358299738,67.85852120799245,69.3273965829867,1.04,2.4756963749823626,,,,,,,,,,,,Participant 9 Bhavya,001,2023-11-26_16h11.47.368,soloprojectsharanya,2023.2.1,None,2023-11-26 16h12.06.706272 +0530,
Rachel Green,cs,,,0,21,21,7,,,,,69.33759341598488,,69.32761691597989,69.33759341598488,70.33410512498813,70.33410512498813,70.3454825829831,71.06094149997807,1.0355555555555556,1.7160920840105973,,,,,,,,,,,,Participant 9 Bhavya,001,2023-11-26_16h11.47.368,soloprojectsharanya,2023.2.1,None,2023-11-26 16h12.06.706272 +0530,
Dwayne Johnson,c,,,0,22,22,11,,,,,71.0722339579952,,71.06117641599849,71.0722339579952,72.06665674998658,72.06665674998658,72.0788592909812,72.87720237497706,1.0355555555555556,1.799125958001241,,,,,,,,,,,,Participant 9 Bhavya,001,2023-11-26_16h11.47.368,soloprojectsharanya,2023.2.1,None,2023-11-26 16h12.06.706272 +0530,
oliver murphy ,un,,,0,23,23,18,,,,,72.88852487498662,,72.87743816597504,72.88852487498662,73.8848512499826,73.8848512499826,73.89612633298384,76.09740533298464,4.133333333333333,3.20507045800332,,,,,,,,,,,,Participant 9 Bhavya,001,2023-11-26_16h11.47.368,soloprojectsharanya,2023.2.1,None,2023-11-26 16h12.06.706272 +0530,
,,Bush,cwp,,,,,0,0,0,6,84.11647420798545,,,,,,,,,,76.0975675409718,76.10892183298711,84.11647420798545,84.09329949997482,84.10832466598367,85.09241154097253,85.09241154097253,86.35043687498546,y,1.225735917018028,None,Participant 9 Bhavya,001,2023-11-26_16h11.47.368,soloprojectsharanya,2023.2.1,None,2023-11-26 16h12.06.706272 +0530,
,,banc,pw,,,,,0,1,1,27,86.36402129099588,,,,,,,,,,,,,,86.35131745800027,87.35067920800066,87.35067920800066,88.37694545797422,n,1.0208402079879306,None,Participant 9 Bhavya,001,2023-11-26_16h11.47.368,soloprojectsharanya,2023.2.1,None,2023-11-26 16h12.06.706272 +0530,
,,thrade,pw,,,,,0,2,2,16,88.3882046249928,,,,,,,,,,,,,,88.3775202909892,89.36795233297744,89.36795233297744,90.6164984999923,n,1.2453500000119675,None,Participant 9 Bhavya,001,2023-11-26_16h11.47.368,soloprojectsharanya,2023.2.1,None,2023-11-26 16h12.06.706272 +0530,
,,Spouse,cwu,,,,,0,3,3,13,90.6349586249853,,,,,,,,,,,,,,90.6170798749954,91.61822249999386,91.61822249999386,92.35087962498073,y,0.7313627080002334,None,Participant 9 Bhavya,001,2023-11-26_16h11.47.368,soloprojectsharanya,2023.2.1,None,2023-11-26 16h12.06.706272 +0530,
,,gesting,pw,,,,,0,4,4,23,92.36218166598701,,,,,,,,,,,,,,92.35156062498572,93.35124004099634,93.35124004099634,94.28306645798148,n,0.9252630840055645,None,Participant 9 Bhavya,001,2023-11-26_16h11.47.368,soloprojectsharanya,2023.2.1,None,2023-11-26 16h12.06.706272 +0530,
,,gweet,pw,,,,,0,5,5,24,94.29506854098872,,,,,,,,,,,,,,94.28364224999677,95.2833649579843,95.2833649579843,96.41701604099944,y,1.131934667006135,None,Participant 9 Bhavya,001,2023-11-26_16h11.47.368,soloprojectsharanya,2023.2.1,None,2023-11-26 16h12.06.706272 +0530,
,,Green,cwp,,,,,0,6,6,5,96.42855104099726,,,,,,,,,,,,,,96.41770366599667,97.41833849999239,97.41833849999239,98.29333424998913,y,0.8705549580045044,None,Participant 9 Bhavya,001,2023-11-26_16h11.47.368,soloprojectsharanya,2023.2.1,None,2023-11-26 16h12.06.706272 +0530,
,,frambos,pw,,,,,0,7,7,21,98.30511237497558,,,,,,,,,,,,,,98.29401887499262,99.29215195798315,99.29215195798315,100.39361983299023,n,1.0956653749744873,None,Participant 9 Bhavya,001,2023-11-26_16h11.47.368,soloprojectsharanya,2023.2.1,None,2023-11-26 16h12.06.706272 +0530,
,,exsess,pw,,,,,0,8,8,20,100.40641091598081,,,,,,,,,,,,,,100.39420329098357,101.38454254099634,101.38454254099634,103.11696987497271,y,1.7255507500085514,None,Participant 9 Bhavya,001,2023-11-26_16h11.47.368,soloprojectsharanya,2023.2.1,None,2023-11-26 16h12.06.706272 +0530,
,,Cook,cwp,,,,,0,9,9,1,103.12844766597846,,,,,,,,,,,,,,103.11753879097523,104.11864766597864,104.11864766597864,104.78479558299296,y,0.6581832499941811,None,Participant 9 Bhavya,001,2023-11-26_16h11.47.368,soloprojectsharanya,2023.2.1,None,2023-11-26 16h12.06.706272 +0530,
,,Stone,cwp,,,,,0,10,10,4,104.79600766598014,,,,,,,,,,,,,,104.78553904098226,105.78464012499899,105.78464012499899,106.3669538749964,y,0.5787282919918653,None,Participant 9 Bhavya,001,2023-11-26_16h11.47.368,soloprojectsharanya,2023.2.1,None,2023-11-26 16h12.06.706272 +0530,
,,Legend,cwp,,,,,0,11,11,7,106.37814795799204,,,,,,,,,,,,,,106.3675360409834,107.36922245798633,107.36922245798633,108.72724108299008,y,1.3487727089959662,None,Participant 9 Bhavya,001,2023-11-26_16h11.47.368,soloprojectsharanya,2023.2.1,None,2023-11-26 16h12.06.706272 +0530,
,,Aquity,cwu,,,,,0,12,12,11,108.74055833299644,,,,,,,,,,,,,,108.72793058297248,109.71822162499302,109.71822162499302,110.64990437499364,n,0.9261476249957923,None,Participant 9 Bhavya,001,2023-11-26_16h11.47.368,soloprojectsharanya,2023.2.1,None,2023-11-26 16h12.06.706272 +0530,
,,biled,pw,,,,,0,13,13,30,110.6766112499754,,,,,,,,,,,,,,110.65047804097412,111.65219220798463,111.65219220798463,112.8775275409862,y,1.2151182079978753,None,Participant 9 Bhavya,001,2023-11-26_16h11.47.368,soloprojectsharanya,2023.2.1,None,2023-11-26 16h12.06.706272 +0530,
,,poing,pw,,,,,0,14,14,28,112.88838304099045,,,,,,,,,,,,,,112.87810474997968,113.87629224997363,113.87629224997363,114.91070970799774,n,1.0304713749792427,None,Participant 9 Bhavya,001,2023-11-26_16h11.47.368,soloprojectsharanya,2023.2.1,None,2023-11-26 16h12.06.706272 +0530,
,,Cajole,cwu,,,,,0,15,15,10,114.92401429099846,,,,,,,,,,,,,,114.91138787497766,115.90956179099157,115.90956179099157,117.76041716599138,y,1.8411127500003204,None,Participant 9 Bhavya,001,2023-11-26_16h11.47.368,soloprojectsharanya,2023.2.1,None,2023-11-26 16h12.06.706272 +0530,
,,Bullock ,cwu,,,,,0,16,16,8,117.77203462499892,,,,,,,,,,,,,,117.76113145798445,118.752348332986,118.752348332986,123.43775012498372,y,4.675011667015497,None,Participant 9 Bhavya,001,2023-11-26_16h11.47.368,soloprojectsharanya,2023.2.1,None,2023-11-26 16h12.06.706272 +0530,
,,hawyk,pw,,,,,0,17,17,25,123.4461463749758,,,,,,,,,,,,,,123.43834066597628,124.43617683299817,124.43617683299817,125.70136724997428,n,1.2586753750219941,None,Participant 9 Bhavya,001,2023-11-26_16h11.47.368,soloprojectsharanya,2023.2.1,None,2023-11-26 16h12.06.706272 +0530,
,,contrivial,pw,,,,,0,18,18,31,125.7130949999846,,,,,,,,,,,,,,125.70208249997813,126.7021024999849,126.7021024999849,129.40063987497706,y,2.6972840420203283,None,Participant 9 Bhavya,001,2023-11-26_16h11.47.368,soloprojectsharanya,2023.2.1,None,2023-11-26 16h12.06.706272 +0530,
,,infrate,pw,,,,,0,19,19,26,129.41255579097196,,,,,,,,,,,,,,129.40120787499472,130.40222949997406,130.40222949997406,131.69471137499204,n,1.2906729169772007,None,Participant 9 Bhavya,001,2023-11-26_16h11.47.368,soloprojectsharanya,2023.2.1,None,2023-11-26 16h12.06.706272 +0530,
,,demical,pw,,,,,0,20,20,19,131.70616291597253,,,,,,,,,,,,,,131.69538949997514,132.69330466599786,132.69330466599786,133.2108927499794,n,0.5096466250251979,None,Participant 9 Bhavya,001,2023-11-26_16h11.47.368,soloprojectsharanya,2023.2.1,None,2023-11-26 16h12.06.706272 +0530,
,,Callous,cwu,,,,,0,21,21,9,133.222043457994,,,,,,,,,,,,,,133.21147558299708,134.20245383298607,134.20245383298607,135.92781516598188,n,1.71722408401547,None,Participant 9 Bhavya,001,2023-11-26_16h11.47.368,soloprojectsharanya,2023.2.1,None,2023-11-26 16h12.06.706272 +0530,
,,hoory,pw,,,,,0,22,22,29,135.93951774999732,,,,,,,,,,,,,,135.92850383298355,136.91833479100023,136.91833479100023,138.2449048749986,n,1.3252508330042474,None,Participant 9 Bhavya,001,2023-11-26_16h11.47.368,soloprojectsharanya,2023.2.1,None,2023-11-26 16h12.06.706272 +0530,
,,King,cwp,,,,,0,23,23,2,138.25618766597472,,,,,,,,,,,,,,138.24559183299425,139.24343795797904,139.24343795797904,140.76164512499236,y,1.5171842080017086,None,Participant 9 Bhavya,001,2023-11-26_16h11.47.368,soloprojectsharanya,2023.2.1,None,2023-11-26 16h12.06.706272 +0530,
,,Sniff,cwu,,,,,0,24,24,15,140.7727927909873,,,,,,,,,,,,,,140.76222608299577,141.75956599999336,141.75956599999336,142.6016776659817,n,0.8359913750027772,None,Participant 9 Bhavya,001,2023-11-26_16h11.47.368,soloprojectsharanya,2023.2.1,None,2023-11-26 16h12.06.706272 +0530,
,,ciphere,pw,,,,,0,25,25,18,142.61285349997343,,,,,,,,,,,,,,142.60235724999802,143.60220333299367,143.60220333299367,144.23469554097392,n,0.6300302500021644,None,Participant 9 Bhavya,001,2023-11-26_16h11.47.368,soloprojectsharanya,2023.2.1,None,2023-11-26 16h12.06.706272 +0530,
,,laptop,cwu,,,,,0,26,26,14,144.2464381659811,,,,,,,,,,,,,,144.2353450829978,145.23542370798532,145.23542370798532,149.34486570800073,y,4.1081287920242175,None,Participant 9 Bhavya,001,2023-11-26_16h11.47.368,soloprojectsharanya,2023.2.1,None,2023-11-26 16h12.06.706272 +0530,
,,abary,pw,,,,,0,27,27,17,149.3567282909935,,,,,,,,,,,,,,149.34555329097202,150.34352374999435,150.34352374999435,151.02817099998356,n,0.6747485420200974,None,Participant 9 Bhavya,001,2023-11-26_16h11.47.368,soloprojectsharanya,2023.2.1,None,2023-11-26 16h12.06.706272 +0530,
,,Dispel,cwu,,,,,0,28,28,12,151.03951495798538,,,,,,,,,,,,,,151.028736999986,152.01946758298436,152.01946758298436,152.9612705409818,n,0.9330942920059897,None,Participant 9 Bhavya,001,2023-11-26_16h11.47.368,soloprojectsharanya,2023.2.1,None,2023-11-26 16h12.06.706272 +0530,
,,fuguil,pw,,,,,0,29,29,22,152.97317849998944,,,,,,,,,,,,,,152.96195849997457,153.95282620799844,153.95282620799844,154.66129112499766,n,0.6995927499956451,None,Participant 9 Bhavya,001,2023-11-26_16h11.47.368,soloprojectsharanya,2023.2.1,None,2023-11-26 16h12.06.706272 +0530,
,,Cruise,cwp,,,,,0,30,30,3,154.67204808298266,,,,,,,,,,,,,,154.66187862498919,155.65325674999622,155.65325674999622,156.84496424999088,y,1.1817102909844834,None,Participant 9 Bhavya,001,2023-11-26_16h11.47.368,soloprojectsharanya,2023.2.1,None,2023-11-26 16h12.06.706272 +0530,
,,Diesel,cwp,,,,,0,31,31,0,156.85587670799578,,,,,,,,,,,,,,156.84566795799765,157.84387399998377,157.84387399998377,158.38530904098297,y,0.5401011250214651,None,Participant 9 Bhavya,001,2023-11-26_16h11.47.368,soloprojectsharanya,2023.2.1,None,2023-11-26 16h12.06.706272 +0530,
