study_words,con,test_words,cond,trials.thisRepN,trials.thisTrialN,trials.thisN,trials.thisIndex,trials_2.thisRepN,trials_2.thisTrialN,trials_2.thisN,trials_2.thisIndex,thisRow.t,notes,trial.started,Fixation.started,studytext.started,slider.started,Fixation.stopped,trial.stopped,slider.response,slider.rt,instruction.started,text_2.started,text_2.stopped,instruction.stopped,test.started,text.started,key_resp.started,test.stopped,key_resp.keys,key_resp.rt,key_resp.duration,participant,session,date,expName,psychopyVersion,frameRate,expStart,
Jennifer Aniston,c,,,0,0,0,16,,,,,0.031162125000264496,,0.01861950001330115,0.031162125000264496,1.0232531250221655,1.0232531250221655,1.037867292005103,5.523015834012767,4.973333333333334,5.486268166016089,,,,,,,,,,,,Participant 10 Pushkar,001,2023-11-26_16h49.13.168,soloprojectsharanya,2023.2.1,None,2023-11-26 16h49.32.664378 +0530,
Kate Winslow,c,,,0,1,1,10,,,,,5.535297709022416,,5.5233707500156015,5.535297709022416,6.5310675840009935,6.5310675840009935,6.542185750004137,6.959671042015543,4.973333333333334,1.420257332996698,,,,,,,,,,,,Participant 10 Pushkar,001,2023-11-26_16h49.13.168,soloprojectsharanya,2023.2.1,None,2023-11-26 16h49.32.664378 +0530,
Garcia Rodiguez,un,,,0,2,2,21,,,,,6.973415750020649,,6.959896667016437,6.973415750020649,7.963788792025298,7.963788792025298,7.974899125023512,8.409471500024665,4.977777777777778,1.432009417010704,,,,,,,,,,,,Participant 10 Pushkar,001,2023-11-26_16h49.13.168,soloprojectsharanya,2023.2.1,None,2023-11-26 16h49.32.664378 +0530,
John Legend,cs,,,0,3,3,9,,,,,8.421284292009659,,8.40969020902412,8.421284292009659,9.41327225000714,9.41327225000714,9.424525459005963,9.939756500010844,4.977777777777778,1.5110609580005985,,,,,,,,,,,,Participant 10 Pushkar,001,2023-11-26_16h49.13.168,soloprojectsharanya,2023.2.1,None,2023-11-26 16h49.32.664378 +0530,
Rachel Green,cs,,,0,4,4,7,,,,,9.949928750022082,,9.939987042016583,9.949928750022082,10.94693350000307,10.94693350000307,10.958011500013527,14.278259625018109,3.924444444444444,4.323292957997182,,,,,,,,,,,,Participant 10 Pushkar,001,2023-11-26_16h49.13.168,soloprojectsharanya,2023.2.1,None,2023-11-26 16h49.32.664378 +0530,
Vin Diesel,cs,,,0,5,5,1,,,,,14.289898959017592,,14.278495125006884,14.289898959017592,15.280493625003146,15.280493625003146,15.291737999999896,17.389394124998944,3.022222222222222,3.092995874991175,,,,,,,,,,,,Participant 10 Pushkar,001,2023-11-26_16h49.13.168,soloprojectsharanya,2023.2.1,None,2023-11-26 16h49.32.664378 +0530,
Robin Cook,cs,,,0,6,6,2,,,,,17.40188250000938,,17.38962829200318,17.40188250000938,18.39692104200367,18.39692104200367,18.40813387502567,20.24364508400322,5,2.8376776250079274,,,,,,,,,,,,Participant 10 Pushkar,001,2023-11-26_16h49.13.168,soloprojectsharanya,2023.2.1,None,2023-11-26 16h49.32.664378 +0530,
Dwayne Johnson,c,,,0,7,7,11,,,,,20.254605834023096,,20.243888292025076,20.254605834023096,21.24733633402502,21.24733633402502,21.258289875026094,22.327536084019812,5,2.068477458989946,,,,,,,,,,,,Participant 10 Pushkar,001,2023-11-26_16h49.13.168,soloprojectsharanya,2023.2.1,None,2023-11-26 16h49.32.664378 +0530,
Halle Berry,cs,,,0,8,8,0,,,,,22.339614500000607,,22.327761125023244,22.339614500000607,23.330558167013805,23.330558167013805,23.341680292011006,24.026808500027983,5,1.6832458749995567,,,,,,,,,,,,Participant 10 Pushkar,001,2023-11-26_16h49.13.168,soloprojectsharanya,2023.2.1,None,2023-11-26 16h49.32.664378 +0530,
oliver murphy ,un,,,0,9,9,18,,,,,24.0541426250129,,24.027032292011427,24.0541426250129,25.030123459000606,25.030123459000606,25.054469042021083,25.840278709016275,5,1.7935169590055011,,,,,,,,,,,,Participant 10 Pushkar,001,2023-11-26_16h49.13.168,soloprojectsharanya,2023.2.1,None,2023-11-26 16h49.32.664378 +0530,
Oprah Winfer,c,,,0,10,10,12,,,,,25.851636292005423,,25.840513834002195,25.851636292005423,26.84709558400209,26.84709558400209,26.858165750018088,29.294380042003468,3.9155555555555557,3.4385794590052683,,,,,,,,,,,,Participant 10 Pushkar,001,2023-11-26_16h49.13.168,soloprojectsharanya,2023.2.1,None,2023-11-26 16h49.32.664378 +0530,
Rita Mulaney,un,,,0,11,11,20,,,,,29.30634070900851,,29.294602167006815,29.30634070900851,30.29731800002628,30.29731800002628,30.30868191702757,32.373211209021974,5,3.061494458001107,,,,,,,,,,,,Participant 10 Pushkar,001,2023-11-26_16h49.13.168,soloprojectsharanya,2023.2.1,None,2023-11-26 16h49.32.664378 +0530,
Allan Carter,un,,,0,12,12,23,,,,,32.383653374999994,,32.37344375002431,32.383653374999994,33.38062487501884,33.38062487501884,33.39178566701594,35.02760287502315,3.04,2.6399262500053737,,,,,,,,,,,,Participant 10 Pushkar,001,2023-11-26_16h49.13.168,soloprojectsharanya,2023.2.1,None,2023-11-26 16h49.32.664378 +0530,
Christiano Ronaldo,c,,,0,13,13,13,,,,,35.0385248340026,,35.027831625018734,35.0385248340026,36.030435792024946,36.030435792024946,36.04180629202165,39.010788167011924,1.0,3.9680755419831257,,,,,,,,,,,,Participant 10 Pushkar,001,2023-11-26_16h49.13.168,soloprojectsharanya,2023.2.1,None,2023-11-26 16h49.32.664378 +0530,
Lindsay Lohan,c,,,0,14,14,14,,,,,39.021495917026186,,39.01100925001083,39.021495917026186,40.014948084019125,40.014948084019125,40.026024792023236,42.84455912502017,4.995555555555556,3.8189202080247924,,,,,,,,,,,,Participant 10 Pushkar,001,2023-11-26_16h49.13.168,soloprojectsharanya,2023.2.1,None,2023-11-26 16h49.32.664378 +0530,
Amelia O'Brien,un,,,0,15,15,19,,,,,42.87215679200017,,42.84478854201734,42.87215679200017,43.84733987500658,43.84733987500658,43.87160904202028,45.84077154201805,4.982222222222222,2.976921666995622,,,,,,,,,,,,Participant 10 Pushkar,001,2023-11-26_16h49.13.168,soloprojectsharanya,2023.2.1,None,2023-11-26 16h49.32.664378 +0530,
Emma Stone,cs,,,0,16,16,5,,,,,45.85251400002744,,45.84100650000619,45.85251400002744,46.84851675000391,46.84851675000391,46.85941829200601,48.61165620901738,4.013333333333334,2.7552150420087855,,,,,,,,,,,,Participant 10 Pushkar,001,2023-11-26_16h49.13.168,soloprojectsharanya,2023.2.1,None,2023-11-26 16h49.32.664378 +0530,
Tom Cruise,cs,,,0,17,17,4,,,,,48.638282250001794,,48.61187529200106,48.638282250001794,49.61463854199974,49.61463854199974,49.637613917002454,51.04053016702528,3.9466666666666668,2.410779083002126,,,,,,,,,,,,Participant 10 Pushkar,001,2023-11-26_16h49.13.168,soloprojectsharanya,2023.2.1,None,2023-11-26 16h49.32.664378 +0530,
Mariah Carey,c,,,0,18,18,15,,,,,51.05128825001884,,51.04078037501313,51.05128825001884,52.04787291699904,52.04787291699904,52.05884820900974,53.011452417005785,3.9466666666666668,1.9562568750116043,,,,,,,,,,,,Participant 10 Pushkar,001,2023-11-26_16h49.13.168,soloprojectsharanya,2023.2.1,None,2023-11-26 16h49.32.664378 +0530,
George Bush,cs,,,0,19,19,8,,,,,53.0216857920168,,53.011673750006594,53.0216857920168,54.01486958400346,54.01486958400346,54.02591870902688,55.573687084019184,3.937777777777778,2.5450551669928245,,,,,,,,,,,,Participant 10 Pushkar,001,2023-11-26_16h49.13.168,soloprojectsharanya,2023.2.1,None,2023-11-26 16h49.32.664378 +0530,
James Bond,cs,,,0,20,20,6,,,,,55.58483362500556,,55.57390466702054,55.58483362500556,56.58072558400454,56.58072558400454,56.591928084002575,58.49087083400809,3.928888888888889,2.8987627919996157,,,,,,,,,,,,Participant 10 Pushkar,001,2023-11-26_16h49.13.168,soloprojectsharanya,2023.2.1,None,2023-11-26 16h49.32.664378 +0530,
Stephen King,cs,,,0,21,21,3,,,,,58.50152554200031,,58.49110216702684,58.50152554200031,59.49712437501876,59.49712437501876,59.50899187501636,60.45771908402094,3.977777777777778,1.9490615830000024,,,,,,,,,,,,Participant 10 Pushkar,001,2023-11-26_16h49.13.168,soloprojectsharanya,2023.2.1,None,2023-11-26 16h49.32.664378 +0530,
daniel carr,un,,,0,22,22,17,,,,,60.4684220420022,,60.45794800002477,60.4684220420022,61.46488862502156,61.46488862502156,61.476093167002546,62.244667999999365,3.977777777777778,1.7723012499918696,,,,,,,,,,,,Participant 10 Pushkar,001,2023-11-26_16h49.13.168,soloprojectsharanya,2023.2.1,None,2023-11-26 16h49.32.664378 +0530,
Terrence Peterson,un,,,0,23,23,22,,,,,62.25526141701266,,62.24489020902547,62.25526141701266,63.24749912502011,63.24749912502011,63.25922725000419,64.07410804202664,3.977777777777778,1.8115457919775508,,,,,,,,,,,,Participant 10 Pushkar,001,2023-11-26_16h49.13.168,soloprojectsharanya,2023.2.1,None,2023-11-26 16h49.32.664378 +0530,
,,gesting,pw,,,,,0,0,0,23,72.08652991702547,,,,,,,,,,64.07424637500662,64.07890283400775,72.08652991702547,72.06272500002524,72.078361959022,73.07241591700586,73.07241591700586,74.65041933400789,n,1.551160584000172,None,Participant 10 Pushkar,001,2023-11-26_16h49.13.168,soloprojectsharanya,2023.2.1,None,2023-11-26 16h49.32.664378 +0530,
,,Cruise,cwp,,,,,0,1,1,3,74.66976058401633,,,,,,,,,,,,,,74.65141370901256,75.64838020902243,75.64838020902243,76.60682412501774,y,0.9549778749933466,None,Participant 10 Pushkar,001,2023-11-26_16h49.13.168,soloprojectsharanya,2023.2.1,None,2023-11-26 16h49.32.664378 +0530,
,,laptop,cwu,,,,,0,2,2,14,76.61830912501318,,,,,,,,,,,,,,76.60752458401839,77.60625933401752,77.60625933401752,78.33998662501108,y,0.7261739159876015,None,Participant 10 Pushkar,001,2023-11-26_16h49.13.168,soloprojectsharanya,2023.2.1,None,2023-11-26 16h49.32.664378 +0530,
,,thrade,pw,,,,,0,3,3,16,78.35136350002722,,,,,,,,,,,,,,78.34070366702508,79.33161733401357,79.33161733401357,80.17356325002038,n,0.8361758749815635,None,Participant 10 Pushkar,001,2023-11-26_16h49.13.168,soloprojectsharanya,2023.2.1,None,2023-11-26 16h49.32.664378 +0530,
,,Bullock ,cwu,,,,,0,4,4,8,80.18495858402457,,,,,,,,,,,,,,80.17425870901207,81.16510475001996,81.16510475001996,82.00680104200728,y,0.8335012500174344,None,Participant 10 Pushkar,001,2023-11-26_16h49.13.168,soloprojectsharanya,2023.2.1,None,2023-11-26 16h49.32.664378 +0530,
,,exsess,pw,,,,,0,5,5,20,82.01910858400515,,,,,,,,,,,,,,82.00749745900976,82.99876137502724,82.99876137502724,83.73053950001486,n,0.728952790988842,None,Participant 10 Pushkar,001,2023-11-26_16h49.13.168,soloprojectsharanya,2023.2.1,None,2023-11-26 16h49.32.664378 +0530,
,,fuguil,pw,,,,,0,6,6,22,83.74229279201245,,,,,,,,,,,,,,83.73124037502566,84.73157354202704,84.73157354202704,85.33028824999928,n,0.5921148330089636,None,Participant 10 Pushkar,001,2023-11-26_16h49.13.168,soloprojectsharanya,2023.2.1,None,2023-11-26 16h49.32.664378 +0530,
,,poing,pw,,,,,0,7,7,28,85.34173029201338,,,,,,,,,,,,,,85.33099237500574,86.33120616700035,86.33120616700035,87.0404187090171,n,0.7041770000068936,None,Participant 10 Pushkar,001,2023-11-26_16h49.13.168,soloprojectsharanya,2023.2.1,None,2023-11-26 16h49.32.664378 +0530,
,,biled,pw,,,,,0,8,8,30,87.05100195901468,,,,,,,,,,,,,,87.04112112501753,88.03172520900262,88.03172520900262,88.6235189170111,n,0.5873969999956898,None,Participant 10 Pushkar,001,2023-11-26_16h49.13.168,soloprojectsharanya,2023.2.1,None,2023-11-26 16h49.32.664378 +0530,
,,contrivial,pw,,,,,0,9,9,31,88.63494716701098,,,,,,,,,,,,,,88.62412791702081,89.61584687500726,89.61584687500726,90.424079584016,n,0.8013486250129063,None,Participant 10 Pushkar,001,2023-11-26_16h49.13.168,soloprojectsharanya,2023.2.1,None,2023-11-26 16h49.32.664378 +0530,
,,Cajole,cwu,,,,,0,10,10,10,90.43608166702325,,,,,,,,,,,,,,90.42469216702739,91.4160965840274,91.4160965840274,92.02411970900721,n,0.5991372500138823,None,Participant 10 Pushkar,001,2023-11-26_16h49.13.168,soloprojectsharanya,2023.2.1,None,2023-11-26 16h49.32.664378 +0530,
,,hawyk,pw,,,,,0,11,11,25,92.03511570900446,,,,,,,,,,,,,,92.02470650000032,93.02276520902524,93.02276520902524,95.12339754201821,n,2.091646707995096,None,Participant 10 Pushkar,001,2023-11-26_16h49.13.168,soloprojectsharanya,2023.2.1,None,2023-11-26 16h49.32.664378 +0530,
,,gweet,pw,,,,,0,12,12,24,95.13517270900775,,,,,,,,,,,,,,95.12409054202726,96.11569575002068,96.11569575002068,96.85771016700892,n,0.7406942920060828,None,Participant 10 Pushkar,001,2023-11-26_16h49.13.168,soloprojectsharanya,2023.2.1,None,2023-11-26 16h49.32.664378 +0530,
,,Callous,cwu,,,,,0,13,13,9,96.86892479201197,,,,,,,,,,,,,,96.85841450002044,97.85664616702707,97.85664616702707,98.54156958402018,n,0.6835975419962779,None,Participant 10 Pushkar,001,2023-11-26_16h49.13.168,soloprojectsharanya,2023.2.1,None,2023-11-26 16h49.32.664378 +0530,
,,Bush,cwp,,,,,0,14,14,6,98.55247258400777,,,,,,,,,,,,,,98.54226595902583,99.53957983400323,99.53957983400323,100.21500545900199,y,0.6721343749959487,None,Participant 10 Pushkar,001,2023-11-26_16h49.13.168,soloprojectsharanya,2023.2.1,None,2023-11-26 16h49.32.664378 +0530,
,,Green,cwp,,,,,0,15,15,5,100.22620570901199,,,,,,,,,,,,,,100.21559825001168,101.21487304201582,101.21487304201582,101.88121633400442,y,0.6587319170066621,None,Participant 10 Pushkar,001,2023-11-26_16h49.13.168,soloprojectsharanya,2023.2.1,None,2023-11-26 16h49.32.664378 +0530,
,,Legend,cwp,,,,,0,16,16,7,101.89256170901353,,,,,,,,,,,,,,101.88180754202767,102.88170641701436,102.88170641701436,103.5307338340208,y,0.6459582920069806,None,Participant 10 Pushkar,001,2023-11-26_16h49.13.168,soloprojectsharanya,2023.2.1,None,2023-11-26 16h49.32.664378 +0530,
,,Aquity,cwu,,,,,0,17,17,11,103.54300091700861,,,,,,,,,,,,,,103.53130620901356,104.53265779200592,104.53265779200592,105.31346808400122,n,0.7746221669949591,None,Participant 10 Pushkar,001,2023-11-26_16h49.13.168,soloprojectsharanya,2023.2.1,None,2023-11-26 16h49.32.664378 +0530,
,,frambos,pw,,,,,0,18,18,21,105.32546175000607,,,,,,,,,,,,,,105.31404400002793,106.31563987501431,106.31563987501431,107.10729550002725,n,0.7822582500230055,None,Participant 10 Pushkar,001,2023-11-26_16h49.13.168,soloprojectsharanya,2023.2.1,None,2023-11-26 16h49.32.664378 +0530,
,,demical,pw,,,,,0,19,19,19,107.11962870901334,,,,,,,,,,,,,,107.10804400002235,108.09793616700335,108.09793616700335,108.80772458401043,n,0.7051395419985056,None,Participant 10 Pushkar,001,2023-11-26_16h49.13.168,soloprojectsharanya,2023.2.1,None,2023-11-26 16h49.32.664378 +0530,
,,banc,pw,,,,,0,20,20,27,108.81898358400213,,,,,,,,,,,,,,108.80845345900161,109.80638908402761,109.80638908402761,111.28080829200917,y,1.4674855830089655,None,Participant 10 Pushkar,001,2023-11-26_16h49.13.168,soloprojectsharanya,2023.2.1,None,2023-11-26 16h49.32.664378 +0530,
,,Dispel,cwu,,,,,0,21,21,12,111.29214479200891,,,,,,,,,,,,,,111.2813870840182,112.2816427090147,112.2816427090147,113.18051150001702,n,0.8941859579936136,None,Participant 10 Pushkar,001,2023-11-26_16h49.13.168,soloprojectsharanya,2023.2.1,None,2023-11-26 16h49.32.664378 +0530,
,,Diesel,cwp,,,,,0,22,22,0,113.19193370902212,,,,,,,,,,,,,,113.18109591701068,114.18284295900958,114.18284295900958,114.99088262501755,y,0.799656208982924,None,Participant 10 Pushkar,001,2023-11-26_16h49.13.168,soloprojectsharanya,2023.2.1,None,2023-11-26 16h49.32.664378 +0530,
,,hoory,pw,,,,,0,23,23,29,115.0022159590153,,,,,,,,,,,,,,114.99160354200285,115.98221658400143,115.98221658400143,116.74712575000012,n,0.7597884999995586,None,Participant 10 Pushkar,001,2023-11-26_16h49.13.168,soloprojectsharanya,2023.2.1,None,2023-11-26 16h49.32.664378 +0530,
,,abary,pw,,,,,0,24,24,17,116.75834895900334,,,,,,,,,,,,,,116.74772075001965,117.74773400000413,117.74773400000413,118.49091991700698,n,0.7393504159990698,None,Participant 10 Pushkar,001,2023-11-26_16h49.13.168,soloprojectsharanya,2023.2.1,None,2023-11-26 16h49.32.664378 +0530,
,,infrate,pw,,,,,0,25,25,26,118.5020755000005,,,,,,,,,,,,,,118.49162704200717,119.48203083401313,119.48203083401313,120.87437095900532,n,1.3875655000156257,None,Participant 10 Pushkar,001,2023-11-26_16h49.13.168,soloprojectsharanya,2023.2.1,None,2023-11-26 16h49.32.664378 +0530,
,,Cook,cwp,,,,,0,26,26,1,120.88716954202391,,,,,,,,,,,,,,120.87508416702622,121.86526670900639,121.86526670900639,125.18164720901405,y,3.3140276670164894,None,Participant 10 Pushkar,001,2023-11-26_16h49.13.168,soloprojectsharanya,2023.2.1,None,2023-11-26 16h49.32.664378 +0530,
,,Spouse,cwu,,,,,0,27,27,13,125.19265625000116,,,,,,,,,,,,,,125.18234737502644,126.1827895840106,126.1827895840106,127.1814289590111,y,0.9973047499952372,None,Participant 10 Pushkar,001,2023-11-26_16h49.13.168,soloprojectsharanya,2023.2.1,None,2023-11-26 16h49.32.664378 +0530,
,,ciphere,pw,,,,,0,28,28,18,127.19293779201689,,,,,,,,,,,,,,127.18210837501101,128.18237254201085,128.18237254201085,129.04137025002274,n,0.8491481670062058,None,Participant 10 Pushkar,001,2023-11-26_16h49.13.168,soloprojectsharanya,2023.2.1,None,2023-11-26 16h49.32.664378 +0530,
,,Stone,cwp,,,,,0,29,29,4,129.05260870902566,,,,,,,,,,,,,,129.04207358401618,130.04022195900325,130.04022195900325,131.34745562501485,y,1.3035353749874048,None,Participant 10 Pushkar,001,2023-11-26_16h49.13.168,soloprojectsharanya,2023.2.1,None,2023-11-26 16h49.32.664378 +0530,
,,King,cwp,,,,,0,30,30,2,131.37357012502616,,,,,,,,,,,,,,131.34803145902697,132.34880620901822,132.34880620901822,133.09198150000884,y,0.7418186249851715,None,Participant 10 Pushkar,001,2023-11-26_16h49.13.168,soloprojectsharanya,2023.2.1,None,2023-11-26 16h49.32.664378 +0530,
,,Sniff,cwu,,,,,0,31,31,15,133.10360583401052,,,,,,,,,,,,,,133.09268883400364,134.09045254200464,134.09045254200464,136.14146116701886,y,2.0467850000131875,None,Participant 10 Pushkar,001,2023-11-26_16h49.13.168,soloprojectsharanya,2023.2.1,None,2023-11-26 16h49.32.664378 +0530,
