study_words,con,test_words,cond,trials.thisRepN,trials.thisTrialN,trials.thisN,trials.thisIndex,trials_2.thisRepN,trials_2.thisTrialN,trials_2.thisN,trials_2.thisIndex,thisRow.t,notes,trial.started,Fixation.started,studytext.started,slider.started,Fixation.stopped,trial.stopped,slider.response,slider.rt,instruction.started,text_2.started,text_2.stopped,instruction.stopped,test.started,text.started,key_resp.started,test.stopped,key_resp.keys,key_resp.rt,key_resp.duration,participant,session,date,expName,psychopyVersion,frameRate,expStart,
Rachel Green,cs,,,0,0,0,7,,,,,0.039601042022695765,,0.015427375008584931,0.039601042022695765,1.0538268340169452,1.0538268340169452,1.0621794170001522,3.869226125010755,1,3.837687665974954,,,,,,,,,,,,Participant 8 Madhav,001,2023-11-26_16h05.54.056,soloprojectsharanya,2023.2.1,None,2023-11-26 16h06.16.737155 +0530,
daniel carr,un,,,0,1,1,17,,,,,3.879762334021507,,3.869582334009465,3.879762334021507,4.871175084001152,4.871175084001152,4.882381709001493,6.767912000010256,5,2.8836794999951962,,,,,,,,,,,,Participant 8 Madhav,001,2023-11-26_16h05.54.056,soloprojectsharanya,2023.2.1,None,2023-11-26 16h06.16.737155 +0530,
Robin Cook,cs,,,0,2,2,2,,,,,6.77966212501633,,6.768138667015592,6.77966212501633,7.769075125019299,7.769075125019299,7.779687959002331,9.802821667020908,4.1466666666666665,3.0189030840119813,,,,,,,,,,,,Participant 8 Madhav,001,2023-11-26_16h05.54.056,soloprojectsharanya,2023.2.1,None,2023-11-26 16h06.16.737155 +0530,
Mariah Carey,c,,,0,3,3,15,,,,,9.815855000022566,,9.803043749998324,9.815855000022566,10.804212500021094,10.804212500021094,10.816135041997768,12.36955595901236,2.3822222222222225,2.550523250014521,,,,,,,,,,,,Participant 8 Madhav,001,2023-11-26_16h05.54.056,soloprojectsharanya,2023.2.1,None,2023-11-26 16h06.16.737155 +0530,
John Legend,cs,,,0,4,4,9,,,,,12.381665834021987,,12.36979320901446,12.381665834021987,13.3736674170068,13.3736674170068,13.3846985840064,14.415830334008206,2.008888888888889,2.0263987500220537,,,,,,,,,,,,Participant 8 Madhav,001,2023-11-26_16h05.54.056,soloprojectsharanya,2023.2.1,None,2023-11-26 16h06.16.737155 +0530,
oliver murphy ,un,,,0,5,5,18,,,,,14.428194000007352,,14.416066792007769,14.428194000007352,15.420162709022406,15.420162709022406,15.446955874998821,17.398969083995325,3.9155555555555557,2.963725625013467,,,,,,,,,,,,Participant 8 Madhav,001,2023-11-26_16h05.54.056,soloprojectsharanya,2023.2.1,None,2023-11-26 16h06.16.737155 +0530,
Oprah Winfer,c,,,0,6,6,12,,,,,17.410388792020967,,17.399191667005653,17.410388792020967,18.40578766699764,18.40578766699764,18.41655812499812,19.93196558402269,1,2.5148082920059096,,,,,,,,,,,,Participant 8 Madhav,001,2023-11-26_16h05.54.056,soloprojectsharanya,2023.2.1,None,2023-11-26 16h06.16.737155 +0530,
Dwayne Johnson,c,,,0,7,7,11,,,,,19.94318091700552,,19.93219170899829,19.94318091700552,20.938902334019076,20.938902334019076,20.95029066700954,22.536167792015476,1.1066666666666667,2.588951999990968,,,,,,,,,,,,Participant 8 Madhav,001,2023-11-26_16h05.54.056,soloprojectsharanya,2023.2.1,None,2023-11-26 16h06.16.737155 +0530,
Allan Carter,un,,,0,8,8,23,,,,,22.54723366702092,,22.53638829200645,22.54723366702092,23.53892691701185,23.53892691701185,23.550699584011454,25.682733666995773,4.995555555555556,3.1273377090110444,,,,,,,,,,,,Participant 8 Madhav,001,2023-11-26_16h05.54.056,soloprojectsharanya,2023.2.1,None,2023-11-26 16h06.16.737155 +0530,
Amelia O'Brien,un,,,0,9,9,19,,,,,25.69414970901562,,25.682954999996582,25.69414970901562,26.689736166998046,26.689736166998046,26.700912625005003,28.620816750015365,4.973333333333334,2.9220497499918565,,,,,,,,,,,,Participant 8 Madhav,001,2023-11-26_16h05.54.056,soloprojectsharanya,2023.2.1,None,2023-11-26 16h06.16.737155 +0530,
Stephen King,cs,,,0,10,10,3,,,,,28.632707834010944,,28.621051875001285,28.632707834010944,29.622898208996048,29.622898208996048,29.63389762499719,31.986599167023087,1.0,3.350007667002501,,,,,,,,,,,,Participant 8 Madhav,001,2023-11-26_16h05.54.056,soloprojectsharanya,2023.2.1,None,2023-11-26 16h06.16.737155 +0530,
Rita Mulaney,un,,,0,11,11,20,,,,,31.997065625007963,,31.986819459008984,31.997065625007963,32.990432959020836,32.990432959020836,33.00147250000737,34.665685875021154,4.542222222222222,2.6615681250113994,,,,,,,,,,,,Participant 8 Madhav,001,2023-11-26_16h05.54.056,soloprojectsharanya,2023.2.1,None,2023-11-26 16h06.16.737155 +0530,
James Bond,cs,,,0,12,12,6,,,,,34.67653812500066,,34.665907334012445,34.67653812500066,35.672552125004586,35.672552125004586,35.68358150002314,37.48303758399561,1.0666666666666667,2.7989898750092834,,,,,,,,,,,,Participant 8 Madhav,001,2023-11-26_16h05.54.056,soloprojectsharanya,2023.2.1,None,2023-11-26 16h06.16.737155 +0530,
Garcia Rodiguez,un,,,0,13,13,21,,,,,37.49476858400158,,37.4832741249993,37.49476858400158,38.489052417018684,38.489052417018684,38.50094925001031,40.136532875010744,4.902222222222222,2.63780004097498,,,,,,,,,,,,Participant 8 Madhav,001,2023-11-26_16h05.54.056,soloprojectsharanya,2023.2.1,None,2023-11-26 16h06.16.737155 +0530,
Lindsay Lohan,c,,,0,14,14,14,,,,,40.14707875001477,,40.13675287499791,40.14707875001477,41.1399427090073,41.1399427090073,41.15112320901244,45.03249033400789,1.8444444444444446,4.8793621249787975,,,,,,,,,,,,Participant 8 Madhav,001,2023-11-26_16h05.54.056,soloprojectsharanya,2023.2.1,None,2023-11-26 16h06.16.737155 +0530,
Vin Diesel,cs,,,0,15,15,1,,,,,45.043860292003956,,45.032714875007514,45.043860292003956,46.04030308400979,46.04030308400979,46.05228425000678,47.47030137499678,1.0844444444444445,2.4228229169966653,,,,,,,,,,,,Participant 8 Madhav,001,2023-11-26_16h05.54.056,soloprojectsharanya,2023.2.1,None,2023-11-26 16h06.16.737155 +0530,
Tom Cruise,cs,,,0,16,16,4,,,,,47.48103495899704,,47.47052516700933,47.48103495899704,48.47375674999785,48.47375674999785,48.48483887501061,50.75534000000334,1.0933333333333333,3.269525874988176,,,,,,,,,,,,Participant 8 Madhav,001,2023-11-26_16h05.54.056,soloprojectsharanya,2023.2.1,None,2023-11-26 16h06.16.737155 +0530,
Jennifer Aniston,c,,,0,17,17,16,,,,,50.76705079199746,,50.75556362501811,50.76705079199746,51.759206584014464,51.759206584014464,51.76969079201808,52.53820425001322,1.0933333333333333,1.7676281669992022,,,,,,,,,,,,Participant 8 Madhav,001,2023-11-26_16h05.54.056,soloprojectsharanya,2023.2.1,None,2023-11-26 16h06.16.737155 +0530,
Emma Stone,cs,,,0,18,18,5,,,,,52.55067983400659,,52.53844204201596,52.55067983400659,53.54174670900102,53.54174670900102,53.55294175000745,55.74931637500413,1.0977777777777777,3.1932384170067962,,,,,,,,,,,,Participant 8 Madhav,001,2023-11-26_16h05.54.056,soloprojectsharanya,2023.2.1,None,2023-11-26 16h06.16.737155 +0530,
Halle Berry,cs,,,0,19,19,0,,,,,55.76121850000345,,55.749540042015724,55.76121850000345,56.75635441701161,56.75635441701161,56.768290917010745,59.40378837499884,4.862222222222222,3.6393260830082,,,,,,,,,,,,Participant 8 Madhav,001,2023-11-26_16h05.54.056,soloprojectsharanya,2023.2.1,None,2023-11-26 16h06.16.737155 +0530,
Christiano Ronaldo,c,,,0,20,20,13,,,,,59.414462417014875,,59.404011292004725,59.414462417014875,60.40680287501891,60.40680287501891,60.41793287501787,63.9380724170187,1.1155555555555556,4.519081125006778,,,,,,,,,,,,Participant 8 Madhav,001,2023-11-26_16h05.54.056,soloprojectsharanya,2023.2.1,None,2023-11-26 16h06.16.737155 +0530,
Kate Winslow,c,,,0,21,21,10,,,,,63.96501287500723,,63.938316250016214,63.96501287500723,64.93994712500717,64.93994712500717,64.96453412499977,66.90403166701435,4.96,2.9513026250060648,,,,,,,,,,,,Participant 8 Madhav,001,2023-11-26_16h05.54.056,soloprojectsharanya,2023.2.1,None,2023-11-26 16h06.16.737155 +0530,
George Bush,cs,,,0,22,22,8,,,,,66.91454283401254,,66.90425445901928,66.91454283401254,67.90416783399996,67.90416783399996,67.91486050002277,70.58290224999655,1.0,3.6613690000085626,,,,,,,,,,,,Participant 8 Madhav,001,2023-11-26_16h05.54.056,soloprojectsharanya,2023.2.1,None,2023-11-26 16h06.16.737155 +0530,
Terrence Peterson,un,,,0,23,23,22,,,,,70.59341387500172,,70.5831282500003,70.59341387500172,71.5913997089956,71.5913997089956,71.60269762499956,73.88715533399954,4.928888888888888,3.2892141249903943,,,,,,,,,,,,Participant 8 Madhav,001,2023-11-26_16h05.54.056,soloprojectsharanya,2023.2.1,None,2023-11-26 16h06.16.737155 +0530,
,,Diesel,cwp,,,,,0,0,0,0,81.90644145899569,,,,,,,,,,73.88730550001492,73.8981037090125,81.90644145899569,81.88246454199543,81.89792920902255,82.8815950420103,82.8815950420103,83.72039066700381,y,0.8086544999969192,None,Participant 8 Madhav,001,2023-11-26_16h05.54.056,soloprojectsharanya,2023.2.1,None,2023-11-26 16h06.16.737155 +0530,
,,Cook,cwp,,,,,0,1,1,1,83.73485129201435,,,,,,,,,,,,,,83.72137995899539,84.71499700000277,84.71499700000277,85.37321191700175,y,0.6531864999851678,None,Participant 8 Madhav,001,2023-11-26_16h05.54.056,soloprojectsharanya,2023.2.1,None,2023-11-26 16h06.16.737155 +0530,
,,Stone,cwp,,,,,0,2,2,4,85.39311204201658,,,,,,,,,,,,,,85.37379766700906,86.37362045899499,86.37362045899499,86.89986112501356,y,0.5248951250105165,None,Participant 8 Madhav,001,2023-11-26_16h05.54.056,soloprojectsharanya,2023.2.1,None,2023-11-26 16h06.16.737155 +0530,
,,hoory,pw,,,,,0,3,3,29,86.91120866700658,,,,,,,,,,,,,,86.90056758400169,87.89837608402013,87.89837608402013,88.46599987501395,n,0.5591237919870764,None,Participant 8 Madhav,001,2023-11-26_16h05.54.056,soloprojectsharanya,2023.2.1,None,2023-11-26 16h06.16.737155 +0530,
,,gweet,pw,,,,,0,4,4,24,88.47691858399776,,,,,,,,,,,,,,88.46658079201006,89.45782841701293,89.45782841701293,90.03314933401998,n,0.5688774590089452,None,Participant 8 Madhav,001,2023-11-26_16h05.54.056,soloprojectsharanya,2023.2.1,None,2023-11-26 16h06.16.737155 +0530,
,,contrivial,pw,,,,,0,5,5,31,90.04525641701184,,,,,,,,,,,,,,90.03384975000517,91.03185562501312,91.03185562501312,91.83309062500484,n,0.7945654170180205,None,Participant 8 Madhav,001,2023-11-26_16h05.54.056,soloprojectsharanya,2023.2.1,None,2023-11-26 16h06.16.737155 +0530,
,,infrate,pw,,,,,0,6,6,26,91.84434800001327,,,,,,,,,,,,,,91.83369212501566,92.82453320900095,92.82453320900095,93.48943487499491,n,0.66146512501291,None,Participant 8 Madhav,001,2023-11-26_16h05.54.056,soloprojectsharanya,2023.2.1,None,2023-11-26 16h06.16.737155 +0530,
,,frambos,pw,,,,,0,7,7,21,93.50099833399872,,,,,,,,,,,,,,93.49004287499702,94.49106695901719,94.49106695901719,95.10026645901962,n,0.607876500027487,None,Participant 8 Madhav,001,2023-11-26_16h05.54.056,soloprojectsharanya,2023.2.1,None,2023-11-26 16h06.16.737155 +0530,
,,Sniff,cwu,,,,,0,8,8,15,95.11234449999756,,,,,,,,,,,,,,95.10096887502004,96.09869379200973,96.09869379200973,96.80676620901795,y,0.70694866598933,None,Participant 8 Madhav,001,2023-11-26_16h05.54.056,soloprojectsharanya,2023.2.1,None,2023-11-26 16h06.16.737155 +0530,
,,abary,pw,,,,,0,9,9,17,96.81784379199962,,,,,,,,,,,,,,96.8073363340227,97.80745258400566,97.80745258400566,98.88973466699827,n,1.0758017500047572,None,Participant 8 Madhav,001,2023-11-26_16h05.54.056,soloprojectsharanya,2023.2.1,None,2023-11-26 16h06.16.737155 +0530,
,,ciphere,pw,,,,,0,10,10,18,98.90083550001145,,,,,,,,,,,,,,98.89032183401287,99.89041991700651,99.89041991700651,100.48328029201366,n,0.5917336670099758,None,Participant 8 Madhav,001,2023-11-26_16h05.54.056,soloprojectsharanya,2023.2.1,None,2023-11-26 16h06.16.737155 +0530,
,,biled,pw,,,,,0,11,11,30,100.4946982920228,,,,,,,,,,,,,,100.48384920900571,101.47466433400405,101.47466433400405,102.09959987501497,n,0.6205997499928344,None,Participant 8 Madhav,001,2023-11-26_16h05.54.056,soloprojectsharanya,2023.2.1,None,2023-11-26 16h06.16.737155 +0530,
,,Dispel,cwu,,,,,0,12,12,12,102.11137670901371,,,,,,,,,,,,,,102.10031183401588,103.09115845902124,103.09115845902124,103.86653091700282,n,0.7740550420130603,None,Participant 8 Madhav,001,2023-11-26_16h05.54.056,soloprojectsharanya,2023.2.1,None,2023-11-26 16h06.16.737155 +0530,
,,Green,cwp,,,,,0,13,13,5,103.87816820901935,,,,,,,,,,,,,,103.8672147920006,104.8580399590137,104.8580399590137,105.36672449999605,y,0.5016430000250693,None,Participant 8 Madhav,001,2023-11-26_16h05.54.056,soloprojectsharanya,2023.2.1,None,2023-11-26 16h06.16.737155 +0530,
,,Cajole,cwu,,,,,0,14,14,10,105.3792725840176,,,,,,,,,,,,,,105.36743158401805,106.36552762502106,106.36552762502106,106.99994670899468,y,0.6240326249971986,None,Participant 8 Madhav,001,2023-11-26_16h05.54.056,soloprojectsharanya,2023.2.1,None,2023-11-26 16h06.16.737155 +0530,
,,Spouse,cwu,,,,,0,15,15,13,107.01220300002024,,,,,,,,,,,,,,107.00064433400985,107.99897754201083,107.99897754201083,108.56683333401452,n,0.5607651669997722,None,Participant 8 Madhav,001,2023-11-26_16h05.54.056,soloprojectsharanya,2023.2.1,None,2023-11-26 16h06.16.737155 +0530,
,,poing,pw,,,,,0,16,16,28,108.57851558399852,,,,,,,,,,,,,,108.56754124999861,109.56557062501088,109.56557062501088,110.20019375000265,n,0.6245570000028238,None,Participant 8 Madhav,001,2023-11-26_16h05.54.056,soloprojectsharanya,2023.2.1,None,2023-11-26 16h06.16.737155 +0530,
,,Bullock ,cwu,,,,,0,17,17,8,110.21144800001639,,,,,,,,,,,,,,110.2009198339947,111.19888637500117,111.19888637500117,111.81668391701533,y,0.6076516670000274,None,Participant 8 Madhav,001,2023-11-26_16h05.54.056,soloprojectsharanya,2023.2.1,None,2023-11-26 16h06.16.737155 +0530,
,,demical,pw,,,,,0,18,18,19,111.82741362499655,,,,,,,,,,,,,,111.81726629199693,112.80781670901342,112.80781670901342,113.41716887502116,n,0.6080327089875937,None,Participant 8 Madhav,001,2023-11-26_16h05.54.056,soloprojectsharanya,2023.2.1,None,2023-11-26 16h06.16.737155 +0530,
,,banc,pw,,,,,0,19,19,27,113.42844541699742,,,,,,,,,,,,,,113.41787616701913,114.41581108400715,114.41581108400715,114.96696575000533,n,0.5427272919914685,None,Participant 8 Madhav,001,2023-11-26_16h05.54.056,soloprojectsharanya,2023.2.1,None,2023-11-26 16h06.16.737155 +0530,
,,Bush,cwp,,,,,0,20,20,6,114.97790479200194,,,,,,,,,,,,,,114.96766187500907,115.96562487501069,115.96562487501069,116.49988499999745,y,0.5264084590016864,None,Participant 8 Madhav,001,2023-11-26_16h05.54.056,soloprojectsharanya,2023.2.1,None,2023-11-26 16h06.16.737155 +0530,
,,fuguil,pw,,,,,0,21,21,22,116.51153341701138,,,,,,,,,,,,,,116.50059191702167,117.49211741701583,117.49211741701583,117.97309383400716,n,0.47959504200844094,None,Participant 8 Madhav,001,2023-11-26_16h05.54.056,soloprojectsharanya,2023.2.1,None,2023-11-26 16h06.16.737155 +0530,
,,gesting,pw,,,,,0,22,22,23,117.98484304200974,,,,,,,,,,,,,,117.97367162501905,118.97522562500671,118.97522562500671,119.50987383400206,n,0.5244077079987619,None,Participant 8 Madhav,001,2023-11-26_16h05.54.056,soloprojectsharanya,2023.2.1,None,2023-11-26 16h06.16.737155 +0530,
,,hawyk,pw,,,,,0,23,23,25,119.51848129200516,,,,,,,,,,,,,,119.51047116701375,120.50727262502187,120.50727262502187,121.10694458399666,y,0.598449166980572,None,Participant 8 Madhav,001,2023-11-26_16h05.54.056,soloprojectsharanya,2023.2.1,None,2023-11-26 16h06.16.737155 +0530,
,,King,cwp,,,,,0,24,24,2,121.11765766699682,,,,,,,,,,,,,,121.10751195900957,122.10785395902349,122.10785395902349,122.833950500004,y,0.7159838750085328,None,Participant 8 Madhav,001,2023-11-26_16h05.54.056,soloprojectsharanya,2023.2.1,None,2023-11-26 16h06.16.737155 +0530,
,,laptop,cwu,,,,,0,25,25,14,122.8452545000182,,,,,,,,,,,,,,122.83466012502322,123.83250970899826,123.83250970899826,124.51698287500767,y,0.6781259170093108,None,Participant 8 Madhav,001,2023-11-26_16h05.54.056,soloprojectsharanya,2023.2.1,None,2023-11-26 16h06.16.737155 +0530,
,,thrade,pw,,,,,0,26,26,16,124.5287164170004,,,,,,,,,,,,,,124.51767687499523,125.50865083400276,125.50865083400276,126.08399825001834,n,0.5742320840072352,None,Participant 8 Madhav,001,2023-11-26_16h05.54.056,soloprojectsharanya,2023.2.1,None,2023-11-26 16h06.16.737155 +0530,
,,exsess,pw,,,,,0,27,27,20,126.09661729200161,,,,,,,,,,,,,,126.08457741700113,127.07582225001534,127.07582225001534,127.50056795901037,n,0.41769287499482743,None,Participant 8 Madhav,001,2023-11-26_16h05.54.056,soloprojectsharanya,2023.2.1,None,2023-11-26 16h06.16.737155 +0530,
,,Legend,cwp,,,,,0,28,28,7,127.51190558401868,,,,,,,,,,,,,,127.50126975000603,128.49982862500474,128.49982862500474,128.98368129201117,y,0.47592120899935253,None,Participant 8 Madhav,001,2023-11-26_16h05.54.056,soloprojectsharanya,2023.2.1,None,2023-11-26 16h06.16.737155 +0530,
,,Callous,cwu,,,,,0,29,29,9,128.99511120902025,,,,,,,,,,,,,,128.98427254200215,129.97445558401523,129.97445558401523,130.47355116700055,n,0.4921807089995127,None,Participant 8 Madhav,001,2023-11-26_16h05.54.056,soloprojectsharanya,2023.2.1,None,2023-11-26 16h06.16.737155 +0530,
,,Cruise,cwp,,,,,0,30,30,3,130.48466162499972,,,,,,,,,,,,,,130.47414299999946,131.47466258401982,131.47466258401982,132.03435479200562,y,0.5583839580067433,None,Participant 8 Madhav,001,2023-11-26_16h05.54.056,soloprojectsharanya,2023.2.1,None,2023-11-26 16h06.16.737155 +0530,
,,Aquity,cwu,,,,,0,31,31,11,132.0469305840088,,,,,,,,,,,,,,132.03506350002135,133.0327242500207,133.0327242500207,133.68376941699535,y,0.6446422500011977,None,Participant 8 Madhav,001,2023-11-26_16h05.54.056,soloprojectsharanya,2023.2.1,None,2023-11-26 16h06.16.737155 +0530,
