study_words,con,test_words,cond,trials.thisRepN,trials.thisTrialN,trials.thisN,trials.thisIndex,trials_2.thisRepN,trials_2.thisTrialN,trials_2.thisN,trials_2.thisIndex,thisRow.t,notes,trial.started,Fixation.started,studytext.started,slider.started,Fixation.stopped,trial.stopped,slider.response,slider.rt,instruction.started,text_2.started,text_2.stopped,instruction.stopped,test.started,text.started,key_resp.started,test.stopped,key_resp.keys,key_resp.rt,key_resp.duration,participant,session,date,expName,psychopyVersion,frameRate,expStart,
Mariah Carey,c,,,0,0,0,15,,,,,0.02670070799649693,,0.013886165979783982,0.02670070799649693,1.023418374999892,1.023418374999892,1.036698832991533,3.072434790985426,1,3.039131917001214,,,,,,,,,,,,Participant 6 Choekyi,001,2023-11-26_14h49.21.945,soloprojectsharanya,2023.2.1,120.82414094704718,2023-11-26 14h49.51.886346 +0530,
Vin Diesel,cs,,,0,1,1,1,,,,,3.0843038329912815,,3.072800833004294,3.0843038329912815,4.0900801660027355,4.0900801660027355,4.103413957986049,5.272676207998302,1.0044444444444445,2.1796872499980964,,,,,,,,,,,,Participant 6 Choekyi,001,2023-11-26_14h49.21.945,soloprojectsharanya,2023.2.1,120.82414094704718,2023-11-26 14h49.51.886346 +0530,
Oprah Winfer,c,,,0,2,2,12,,,,,5.284445166005753,,5.272912540996913,5.284445166005753,6.289694624982076,6.289694624982076,6.3034363749902695,8.806759333005175,1.0044444444444445,3.5125961669837125,,,,,,,,,,,,Participant 6 Choekyi,001,2023-11-26_14h49.21.945,soloprojectsharanya,2023.2.1,120.82414094704718,2023-11-26 14h49.51.886346 +0530,
Tom Cruise,cs,,,0,3,3,4,,,,,8.818701290991157,,8.806994957994903,8.818701290991157,9.823206125001889,9.823206125001889,9.836877499998081,11.506157708005048,1.0,2.6785425420093816,,,,,,,,,,,,Participant 6 Choekyi,001,2023-11-26_14h49.21.945,soloprojectsharanya,2023.2.1,120.82414094704718,2023-11-26 14h49.51.886346 +0530,
daniel carr,un,,,0,4,4,17,,,,,11.517393249989254,,11.506394208001439,11.517393249989254,12.52366979100043,12.52366979100043,12.536967874999391,16.089708332990995,3.986666666666667,4.562869042012608,,,,,,,,,,,,Participant 6 Choekyi,001,2023-11-26_14h49.21.945,soloprojectsharanya,2023.2.1,120.82414094704718,2023-11-26 14h49.51.886346 +0530,
Allan Carter,un,,,0,5,5,23,,,,,16.10054799998761,,16.089943790982943,16.10054799998761,17.107286582991946,17.107286582991946,17.120346249983413,19.039615999994567,3.026666666666667,2.9297524160065223,,,,,,,,,,,,Participant 6 Choekyi,001,2023-11-26_14h49.21.945,soloprojectsharanya,2023.2.1,120.82414094704718,2023-11-26 14h49.51.886346 +0530,
John Legend,cs,,,0,6,6,9,,,,,19.05240237500402,,19.03985170798842,19.05240237500402,20.056519332982134,20.056519332982134,20.07044749998022,22.072955540992552,1.0044444444444445,3.012901916023111,,,,,,,,,,,,Participant 6 Choekyi,001,2023-11-26_14h49.21.945,soloprojectsharanya,2023.2.1,120.82414094704718,2023-11-26 14h49.51.886346 +0530,
Lindsay Lohan,c,,,0,7,7,14,,,,,22.08443091600202,,22.073190249997424,22.08443091600202,23.09071474999655,23.09071474999655,23.10381270799553,24.3064592499868,1.0044444444444445,2.211534749978455,,,,,,,,,,,,Participant 6 Choekyi,001,2023-11-26_14h49.21.945,soloprojectsharanya,2023.2.1,120.82414094704718,2023-11-26 14h49.51.886346 +0530,
Halle Berry,cs,,,0,8,8,0,,,,,24.318313291005325,,24.30670275000739,24.318313291005325,25.324439374991925,25.324439374991925,25.337278124992736,28.439817165985005,3.982222222222222,4.112716084026033,,,,,,,,,,,,Participant 6 Choekyi,001,2023-11-26_14h49.21.945,soloprojectsharanya,2023.2.1,120.82414094704718,2023-11-26 14h49.51.886346 +0530,
Christiano Ronaldo,c,,,0,9,9,13,,,,,28.451010040997062,,28.44005212499178,28.451010040997062,29.457404957996914,29.457404957996914,29.470581165980548,31.556554374983534,1,3.096333791996585,,,,,,,,,,,,Participant 6 Choekyi,001,2023-11-26_14h49.21.945,soloprojectsharanya,2023.2.1,120.82414094704718,2023-11-26 14h49.51.886346 +0530,
Emma Stone,cs,,,0,10,10,5,,,,,31.568420833005803,,31.55679291600245,31.568420833005803,32.5741467080079,32.5741467080079,32.58748912499868,36.02344829100184,1,4.446788667002693,,,,,,,,,,,,Participant 6 Choekyi,001,2023-11-26_14h49.21.945,soloprojectsharanya,2023.2.1,120.82414094704718,2023-11-26 14h49.51.886346 +0530,
George Bush,cs,,,0,11,11,8,,,,,36.03509804100031,,36.02368275000481,36.03509804100031,37.040079875005176,37.040079875005176,37.054136666003615,39.623534082988044,1,3.580256959015969,,,,,,,,,,,,Participant 6 Choekyi,001,2023-11-26_14h49.21.945,soloprojectsharanya,2023.2.1,120.82414094704718,2023-11-26 14h49.51.886346 +0530,
Amelia O'Brien,un,,,0,12,12,19,,,,,39.634880249999696,,39.62376845799736,39.634880249999696,40.64124445800553,40.64124445800553,40.6541566659871,43.640602790983394,4.995555555555556,3.9963394580117892,,,,,,,,,,,,Participant 6 Choekyi,001,2023-11-26_14h49.21.945,soloprojectsharanya,2023.2.1,120.82414094704718,2023-11-26 14h49.51.886346 +0530,
Rachel Green,cs,,,0,13,13,7,,,,,43.65114899998298,,43.640837207989534,43.65114899998298,44.657646125007886,44.657646125007886,44.6709449159971,46.62348216600367,1.04,2.9636285839951597,,,,,,,,,,,,Participant 6 Choekyi,001,2023-11-26_14h49.21.945,soloprojectsharanya,2023.2.1,120.82414094704718,2023-11-26 14h49.51.886346 +0530,
Garcia Rodiguez,un,,,0,14,14,21,,,,,46.63488683299511,,46.62371920800069,46.63488683299511,47.640610915987054,47.640610915987054,47.65427054098109,50.490904000005685,3.986666666666667,3.8470553749939427,,,,,,,,,,,,Participant 6 Choekyi,001,2023-11-26_14h49.21.945,soloprojectsharanya,2023.2.1,120.82414094704718,2023-11-26 14h49.51.886346 +0530,
Robin Cook,cs,,,0,15,15,2,,,,,50.50264304099255,,50.491140915983124,50.50264304099255,51.507173541001976,51.507173541001976,51.520997874991735,54.473653916007606,3.977777777777778,3.9624949999852106,,,,,,,,,,,,Participant 6 Choekyi,001,2023-11-26_14h49.21.945,soloprojectsharanya,2023.2.1,120.82414094704718,2023-11-26 14h49.51.886346 +0530,
Kate Winslow,c,,,0,16,16,10,,,,,54.485195999994176,,54.47387612500461,54.485195999994176,55.49144408298889,55.49144408298889,55.504494207998505,57.690569583006436,1.0,3.1965388749958947,,,,,,,,,,,,Participant 6 Choekyi,001,2023-11-26_14h49.21.945,soloprojectsharanya,2023.2.1,120.82414094704718,2023-11-26 14h49.51.886346 +0530,
Rita Mulaney,un,,,0,17,17,20,,,,,57.7014577910013,,57.69080420798855,57.7014577910013,58.70828774999245,58.70828774999245,58.72122441598913,61.30666062500677,4.04,3.5978576659981627,,,,,,,,,,,,Participant 6 Choekyi,001,2023-11-26_14h49.21.945,soloprojectsharanya,2023.2.1,120.82414094704718,2023-11-26 14h49.51.886346 +0530,
Jennifer Aniston,c,,,0,18,18,16,,,,,61.31689591598115,,61.30689579099999,61.31689591598115,62.32449633299257,62.32449633299257,62.337950832996285,65.05755708299694,1.008888888888889,3.729317874996923,,,,,,,,,,,,Participant 6 Choekyi,001,2023-11-26_14h49.21.945,soloprojectsharanya,2023.2.1,120.82414094704718,2023-11-26 14h49.51.886346 +0530,
Dwayne Johnson,c,,,0,19,19,11,,,,,65.06854383298196,,65.05782225000439,65.06854383298196,66.07457545798388,66.07457545798388,66.08804941599374,67.6074013329926,1.0,2.5297339170065243,,,,,,,,,,,,Participant 6 Choekyi,001,2023-11-26_14h49.21.945,soloprojectsharanya,2023.2.1,120.82414094704718,2023-11-26 14h49.51.886346 +0530,
Stephen King,cs,,,0,20,20,3,,,,,67.61853199999314,,67.6076352079981,67.61853199999314,68.62512666598195,68.62512666598195,68.63798333299928,69.70708479100722,1.0,2.0806697090156376,,,,,,,,,,,,Participant 6 Choekyi,001,2023-11-26_14h49.21.945,soloprojectsharanya,2023.2.1,120.82414094704718,2023-11-26 14h49.51.886346 +0530,
oliver murphy ,un,,,0,21,21,18,,,,,69.71842716599349,,69.70730587499565,69.71842716599349,70.72426704099053,70.72426704099053,70.73806529099238,73.77442033300758,5,4.046901333000278,,,,,,,,,,,,Participant 6 Choekyi,001,2023-11-26_14h49.21.945,soloprojectsharanya,2023.2.1,120.82414094704718,2023-11-26 14h49.51.886346 +0530,
James Bond,cs,,,0,22,22,6,,,,,73.784666749998,,73.77465454099001,73.784666749998,74.79109291598434,74.79109291598434,74.80481141599012,76.9241899579938,1.04,3.12990783402347,,,,,,,,,,,,Participant 6 Choekyi,001,2023-11-26_14h49.21.945,soloprojectsharanya,2023.2.1,120.82414094704718,2023-11-26 14h49.51.886346 +0530,
Terrence Peterson,un,,,0,23,23,22,,,,,76.93534579098923,,76.92442570798448,76.93534579098923,77.94059916600236,77.94059916600236,77.95486666599754,80.20731745800003,4.982222222222222,3.263873916992452,,,,,,,,,,,,Participant 6 Choekyi,001,2023-11-26_14h49.21.945,soloprojectsharanya,2023.2.1,120.82414094704718,2023-11-26 14h49.51.886346 +0530,
,,laptop,cwu,,,,,0,0,0,14,88.22712920798222,,,,,,,,,,80.20745916600572,80.21299920798629,88.22712920798222,88.20614141598344,88.21913149999455,89.21344670798862,89.21344670798862,91.65653624999686,y,2.43805650001741,None,Participant 6 Choekyi,001,2023-11-26_14h49.21.945,soloprojectsharanya,2023.2.1,120.82414094704718,2023-11-26 14h49.51.886346 +0530,
,,ciphere,pw,,,,,0,1,1,18,91.67078054099693,,,,,,,,,,,,,,91.65753345799749,92.6637509999855,92.6637509999855,96.1637009579863,n,3.496056750009302,None,Participant 6 Choekyi,001,2023-11-26_14h49.21.945,soloprojectsharanya,2023.2.1,120.82414094704718,2023-11-26 14h49.51.886346 +0530,
,,Legend,cwp,,,,,0,2,2,7,96.17502841600799,,,,,,,,,,,,,,96.16442520800047,97.16488895798102,97.16488895798102,98.34036124998238,y,1.174125916993944,None,Participant 6 Choekyi,001,2023-11-26_14h49.21.945,soloprojectsharanya,2023.2.1,120.82414094704718,2023-11-26 14h49.51.886346 +0530,
,,Diesel,cwp,,,,,0,3,3,0,98.3519857909996,,,,,,,,,,,,,,98.34107095800573,99.34773999999743,99.34773999999743,100.42308891599532,y,1.068752291990677,None,Participant 6 Choekyi,001,2023-11-26_14h49.21.945,soloprojectsharanya,2023.2.1,120.82414094704718,2023-11-26 14h49.51.886346 +0530,
,,Stone,cwp,,,,,0,4,4,4,100.4430186660029,,,,,,,,,,,,,,100.4237538749876,101.43123104100232,101.43123104100232,102.22373816597974,y,0.7911576670012437,None,Participant 6 Choekyi,001,2023-11-26_14h49.21.945,soloprojectsharanya,2023.2.1,120.82414094704718,2023-11-26 14h49.51.886346 +0530,
,,gweet,pw,,,,,0,5,5,24,102.23531695798738,,,,,,,,,,,,,,102.2244389159896,103.23052204100532,103.23052204100532,104.03989183300291,n,0.8043536670156755,None,Participant 6 Choekyi,001,2023-11-26_14h49.21.945,soloprojectsharanya,2023.2.1,120.82414094704718,2023-11-26 14h49.51.886346 +0530,
,,fuguil,pw,,,,,0,6,6,22,104.05094487499446,,,,,,,,,,,,,,104.04057133299648,105.04799558297964,105.04799558297964,106.46277170800022,n,1.4084109590039589,None,Participant 6 Choekyi,001,2023-11-26_14h49.21.945,soloprojectsharanya,2023.2.1,120.82414094704718,2023-11-26 14h49.51.886346 +0530,
,,infrate,pw,,,,,0,7,7,26,106.47404658299638,,,,,,,,,,,,,,106.46337091599707,107.46505662499112,107.46505662499112,110.46403724999982,n,2.9948357090179343,None,Participant 6 Choekyi,001,2023-11-26_14h49.21.945,soloprojectsharanya,2023.2.1,120.82414094704718,2023-11-26 14h49.51.886346 +0530,
,,Aquity,cwu,,,,,0,8,8,11,110.4760072909994,,,,,,,,,,,,,,110.46474095800659,111.46469074999914,111.46469074999914,112.86270583298756,y,1.3939505419984926,None,Participant 6 Choekyi,001,2023-11-26_14h49.21.945,soloprojectsharanya,2023.2.1,120.82414094704718,2023-11-26 14h49.51.886346 +0530,
,,gesting,pw,,,,,0,9,9,23,112.87424508298864,,,,,,,,,,,,,,112.86329866599408,113.86293870798545,113.86293870798545,115.86233195799286,n,1.9959139580023475,None,Participant 6 Choekyi,001,2023-11-26_14h49.21.945,soloprojectsharanya,2023.2.1,120.82414094704718,2023-11-26 14h49.51.886346 +0530,
,,abary,pw,,,,,0,10,10,17,115.8890726249956,,,,,,,,,,,,,,115.86301358300261,116.86367412499385,116.86367412499385,119.24009487498552,n,2.37283108299016,None,Participant 6 Choekyi,001,2023-11-26_14h49.21.945,soloprojectsharanya,2023.2.1,120.82414094704718,2023-11-26 14h49.51.886346 +0530,
,,Spouse,cwu,,,,,0,11,11,13,119.25203120798687,,,,,,,,,,,,,,119.24078987498069,120.24839716599672,120.24839716599672,122.23045366597944,y,1.977853457996389,None,Participant 6 Choekyi,001,2023-11-26_14h49.21.945,soloprojectsharanya,2023.2.1,120.82414094704718,2023-11-26 14h49.51.886346 +0530,
,,frambos,pw,,,,,0,12,12,21,122.24202649999643,,,,,,,,,,,,,,122.2311415830045,123.23086987499846,123.23086987499846,126.15793620797922,n,2.9259093750151806,None,Participant 6 Choekyi,001,2023-11-26_14h49.21.945,soloprojectsharanya,2023.2.1,120.82414094704718,2023-11-26 14h49.51.886346 +0530,
,,Cook,cwp,,,,,0,13,13,1,126.16844370798208,,,,,,,,,,,,,,126.15862720800214,127.16502749998472,127.16502749998472,127.97392225000658,y,0.798787582985824,None,Participant 6 Choekyi,001,2023-11-26_14h49.21.945,soloprojectsharanya,2023.2.1,120.82414094704718,2023-11-26 14h49.51.886346 +0530,
,,Bush,cwp,,,,,0,14,14,6,127.98521533299936,,,,,,,,,,,,,,127.97463329098537,128.9815031249891,128.9815031249891,129.62403066598927,y,0.6347606669878587,None,Participant 6 Choekyi,001,2023-11-26_14h49.21.945,soloprojectsharanya,2023.2.1,120.82414094704718,2023-11-26 14h49.51.886346 +0530,
,,Dispel,cwu,,,,,0,15,15,12,129.6350827080023,,,,,,,,,,,,,,129.62474279099843,130.63129720799043,130.63129720799043,131.19721429099445,y,0.5610526670061518,None,Participant 6 Choekyi,001,2023-11-26_14h49.21.945,soloprojectsharanya,2023.2.1,120.82414094704718,2023-11-26 14h49.51.886346 +0530,
,,contrivial,pw,,,,,0,16,16,31,131.209951790981,,,,,,,,,,,,,,131.19793487500283,132.19837095797993,132.19837095797993,134.9909195000073,n,2.7912124170106836,None,Participant 6 Choekyi,001,2023-11-26_14h49.21.945,soloprojectsharanya,2023.2.1,120.82414094704718,2023-11-26 14h49.51.886346 +0530,
,,biled,pw,,,,,0,17,17,30,135.00201924997964,,,,,,,,,,,,,,134.99161404100596,135.99853099999018,135.99853099999018,136.96428808299243,n,0.9643766249937471,None,Participant 6 Choekyi,001,2023-11-26_14h49.21.945,soloprojectsharanya,2023.2.1,120.82414094704718,2023-11-26 14h49.51.886346 +0530,
,,poing,pw,,,,,0,18,18,28,136.97552904099575,,,,,,,,,,,,,,136.96498625000822,137.96519524999894,137.96519524999894,139.98057079099817,n,2.014104791014688,None,Participant 6 Choekyi,001,2023-11-26_14h49.21.945,soloprojectsharanya,2023.2.1,120.82414094704718,2023-11-26 14h49.51.886346 +0530,
,,thrade,pw,,,,,0,19,19,16,139.99158254099893,,,,,,,,,,,,,,139.98114458299824,140.98179883300327,140.98179883300327,143.68071833299473,n,2.695662749989424,None,Participant 6 Choekyi,001,2023-11-26_14h49.21.945,soloprojectsharanya,2023.2.1,120.82414094704718,2023-11-26 14h49.51.886346 +0530,
,,demical,pw,,,,,0,20,20,19,143.69209812500048,,,,,,,,,,,,,,143.68141150000156,144.68216095800744,144.68216095800744,146.69782766597928,n,2.0118301670008805,None,Participant 6 Choekyi,001,2023-11-26_14h49.21.945,soloprojectsharanya,2023.2.1,120.82414094704718,2023-11-26 14h49.51.886346 +0530,
,,King,cwp,,,,,0,21,21,2,146.70863829099108,,,,,,,,,,,,,,146.6984190410003,147.69882816600148,147.69882816600148,148.50736887499806,y,0.804313667002134,None,Participant 6 Choekyi,001,2023-11-26_14h49.21.945,soloprojectsharanya,2023.2.1,120.82414094704718,2023-11-26 14h49.51.886346 +0530,
,,Green,cwp,,,,,0,22,22,5,148.51855337500456,,,,,,,,,,,,,,148.5080469159875,149.51464904099703,149.51464904099703,150.074174999987,y,0.5532951249915641,None,Participant 6 Choekyi,001,2023-11-26_14h49.21.945,soloprojectsharanya,2023.2.1,120.82414094704718,2023-11-26 14h49.51.886346 +0530,
,,exsess,pw,,,,,0,23,23,20,150.0877121249796,,,,,,,,,,,,,,150.07486291599344,151.08157700000447,151.08157700000447,152.32415762500023,n,1.2326976660115179,None,Participant 6 Choekyi,001,2023-11-26_14h49.21.945,soloprojectsharanya,2023.2.1,120.82414094704718,2023-11-26 14h49.51.886346 +0530,
,,Cajole,cwu,,,,,0,24,24,10,152.33753845799947,,,,,,,,,,,,,,152.3248671249894,153.3320252909907,153.3320252909907,157.09089733299334,y,3.750133082998218,None,Participant 6 Choekyi,001,2023-11-26_14h49.21.945,soloprojectsharanya,2023.2.1,120.82414094704718,2023-11-26 14h49.51.886346 +0530,
,,hawyk,pw,,,,,0,25,25,25,157.10231820799527,,,,,,,,,,,,,,157.09161254100036,158.099331290985,158.099331290985,159.1813444159925,n,1.0796610840188805,None,Participant 6 Choekyi,001,2023-11-26_14h49.21.945,soloprojectsharanya,2023.2.1,120.82414094704718,2023-11-26 14h49.51.886346 +0530,
,,Cruise,cwp,,,,,0,26,26,3,159.19261237498722,,,,,,,,,,,,,,159.18203537500813,160.18243279098533,160.18243279098533,161.024145125004,y,0.8331146670097951,None,Participant 6 Choekyi,001,2023-11-26_14h49.21.945,soloprojectsharanya,2023.2.1,120.82414094704718,2023-11-26 14h49.51.886346 +0530,
,,Sniff,cwu,,,,,0,27,27,15,161.03551016599522,,,,,,,,,,,,,,161.02485841599992,162.03249066599528,162.03249066599528,165.94149974998436,y,3.9077400419919286,None,Participant 6 Choekyi,001,2023-11-26_14h49.21.945,soloprojectsharanya,2023.2.1,120.82414094704718,2023-11-26 14h49.51.886346 +0530,
,,hoory,pw,,,,,0,28,28,29,165.95339066599263,,,,,,,,,,,,,,165.94219754100777,166.94946854098816,166.94946854098816,171.57435737500782,n,4.617870665999362,None,Participant 6 Choekyi,001,2023-11-26_14h49.21.945,soloprojectsharanya,2023.2.1,120.82414094704718,2023-11-26 14h49.51.886346 +0530,
,,banc,pw,,,,,0,29,29,27,171.58494629099732,,,,,,,,,,,,,,171.5750479999988,172.5828885829833,172.5828885829833,177.24171916599153,n,4.648374208016321,None,Participant 6 Choekyi,001,2023-11-26_14h49.21.945,soloprojectsharanya,2023.2.1,120.82414094704718,2023-11-26 14h49.51.886346 +0530,
,,Callous,cwu,,,,,0,30,30,9,177.25340837499243,,,,,,,,,,,,,,177.24243291598395,178.2492498329957,178.2492498329957,182.54770008299965,y,4.293155374994967,None,Participant 6 Choekyi,001,2023-11-26_14h49.21.945,soloprojectsharanya,2023.2.1,120.82414094704718,2023-11-26 14h49.51.886346 +0530,
,,Bullock ,cwu,,,,,0,31,31,8,182.55956799999694,,,,,,,,,,,,,,182.54839758298476,183.5487613749865,183.5487613749865,188.50856449999264,y,4.958569915994303,None,Participant 6 Choekyi,001,2023-11-26_14h49.21.945,soloprojectsharanya,2023.2.1,120.82414094704718,2023-11-26 14h49.51.886346 +0530,
