study_words,con,test_words,cond,trials.thisRepN,trials.thisTrialN,trials.thisN,trials.thisIndex,trials_2.thisRepN,trials_2.thisTrialN,trials_2.thisN,trials_2.thisIndex,thisRow.t,notes,trial.started,Fixation.started,studytext.started,slider.started,Fixation.stopped,trial.stopped,slider.response,slider.rt,instruction.started,text_2.started,text_2.stopped,instruction.stopped,test.started,text.started,key_resp.started,test.stopped,key_resp.keys,key_resp.rt,key_resp.duration,participant,session,date,expName,psychopyVersion,frameRate,expStart,
Christiano Ronaldo,c,,,0,0,0,13,,,,,0.027181125013157725,,0.014025625016074628,0.027181125013157725,1.0143825830018613,1.0143825830018613,1.027040166023653,7.133856791013386,1.0266666666666666,7.103967041999567,,,,,,,,,,,,Participant 7 Siya,001,2023-11-26_15h02.45.031,soloprojectsharanya,2023.2.1,119.84623729264307,2023-11-26 15h03.12.207921 +0530,
Tom Cruise,cs,,,0,1,1,4,,,,,7.146299041021848,,7.134212750010192,7.146299041021848,8.134519458020804,8.134519458020804,8.144886291003786,10.180036125006154,1.0044444444444445,3.0271814170118887,,,,,,,,,,,,Participant 7 Siya,001,2023-11-26_15h02.45.031,soloprojectsharanya,2023.2.1,119.84623729264307,2023-11-26 15h03.12.207921 +0530,
Halle Berry,cs,,,0,2,2,0,,,,,10.192342708003707,,10.180258666019654,10.192342708003707,11.187329083011718,11.187329083011718,11.198322333017131,12.279780625016429,1.0044444444444445,2.0800751670030877,,,,,,,,,,,,Participant 7 Siya,001,2023-11-26_15h02.45.031,soloprojectsharanya,2023.2.1,119.84623729264307,2023-11-26 15h03.12.207921 +0530,
Lindsay Lohan,c,,,0,3,3,14,,,,,12.290792208019411,,12.280017500015674,12.290792208019411,13.28615116601577,13.28615116601577,13.299913583003217,14.067367000010563,1.0044444444444445,1.7722192090004683,,,,,,,,,,,,Participant 7 Siya,001,2023-11-26_15h02.45.031,soloprojectsharanya,2023.2.1,119.84623729264307,2023-11-26 15h03.12.207921 +0530,
oliver murphy ,un,,,0,4,4,18,,,,,14.094263541017426,,14.067588041012641,14.094263541017426,15.069713583012344,15.069713583012344,15.09444254101254,18.179761250008596,5,4.094434957980411,,,,,,,,,,,,Participant 7 Siya,001,2023-11-26_15h02.45.031,soloprojectsharanya,2023.2.1,119.84623729264307,2023-11-26 15h03.12.207921 +0530,
Oprah Winfer,c,,,0,5,5,12,,,,,18.191575041011674,,18.18003104100353,18.191575041011674,19.1875072500261,19.1875072500261,19.19829637501971,26.013406041020062,1,7.813464834005572,,,,,,,,,,,,Participant 7 Siya,001,2023-11-26_15h02.45.031,soloprojectsharanya,2023.2.1,119.84623729264307,2023-11-26 15h03.12.207921 +0530,
Rita Mulaney,un,,,0,6,6,20,,,,,26.024629458028357,,26.013648208027007,26.024629458028357,27.01939312502509,27.01939312502509,27.032968833023915,29.13014083300368,5,3.0986612910055555,,,,,,,,,,,,Participant 7 Siya,001,2023-11-26_15h02.45.031,soloprojectsharanya,2023.2.1,119.84623729264307,2023-11-26 15h03.12.207921 +0530,
Amelia O'Brien,un,,,0,7,7,19,,,,,29.142082291014958,,29.13036216600449,29.142082291014958,30.135648375027813,30.135648375027813,30.14727454102831,32.34662875000504,5,3.1989474580041133,,,,,,,,,,,,Participant 7 Siya,001,2023-11-26_15h02.45.031,soloprojectsharanya,2023.2.1,119.84623729264307,2023-11-26 15h03.12.207921 +0530,
Vin Diesel,cs,,,0,8,8,1,,,,,32.35878350000712,,32.34685025000363,32.35878350000712,33.35249216601369,33.35249216601369,33.36594154100749,35.33003300000564,1,2.9651641249947716,,,,,,,,,,,,Participant 7 Siya,001,2023-11-26_15h02.45.031,soloprojectsharanya,2023.2.1,119.84623729264307,2023-11-26 15h03.12.207921 +0530,
Jennifer Aniston,c,,,0,9,9,16,,,,,35.34182229102589,,35.33030487500946,35.34182229102589,36.33660179100116,36.33660179100116,36.34856037501595,37.28010083301342,1,1.9321804580104072,,,,,,,,,,,,Participant 7 Siya,001,2023-11-26_15h02.45.031,soloprojectsharanya,2023.2.1,119.84623729264307,2023-11-26 15h03.12.207921 +0530,
Terrence Peterson,un,,,0,10,10,22,,,,,37.2919145830092,,37.280321625003126,37.2919145830092,38.28745087501011,38.28745087501011,38.30095779101248,40.28006179101067,5,2.9819565409852657,,,,,,,,,,,,Participant 7 Siya,001,2023-11-26_15h02.45.031,soloprojectsharanya,2023.2.1,119.84623729264307,2023-11-26 15h03.12.207921 +0530,
James Bond,cs,,,0,11,11,6,,,,,40.290313416015124,,40.28028258300037,40.290313416015124,41.28726937502506,41.28726937502506,41.30100708300597,42.480170666007325,1.0,2.1826760830008425,,,,,,,,,,,,Participant 7 Siya,001,2023-11-26_15h02.45.031,soloprojectsharanya,2023.2.1,119.84623729264307,2023-11-26 15h03.12.207921 +0530,
Dwayne Johnson,c,,,0,12,12,11,,,,,42.49016754102195,,42.48038987501059,42.49016754102195,43.486004208010854,43.486004208010854,43.49960216600448,44.37979504102259,1.0,1.8843839170003776,,,,,,,,,,,,Participant 7 Siya,001,2023-11-26_15h02.45.031,soloprojectsharanya,2023.2.1,119.84623729264307,2023-11-26 15h03.12.207921 +0530,
George Bush,cs,,,0,13,13,8,,,,,44.39166675001616,,44.380014458001824,44.39166675001616,45.38722500001313,45.38722500001313,45.40001941600349,46.647264041006565,1.0,2.2492093330074567,,,,,,,,,,,,Participant 7 Siya,001,2023-11-26_15h02.45.031,soloprojectsharanya,2023.2.1,119.84623729264307,2023-11-26 15h03.12.207921 +0530,
Garcia Rodiguez,un,,,0,14,14,21,,,,,46.65816075002658,,46.64748508302728,46.65816075002658,47.654095041012624,47.654095041012624,47.66542312502861,49.780310666013975,4.977777777777778,3.115210332995048,,,,,,,,,,,,Participant 7 Siya,001,2023-11-26_15h02.45.031,soloprojectsharanya,2023.2.1,119.84623729264307,2023-11-26 15h03.12.207921 +0530,
Robin Cook,cs,,,0,15,15,2,,,,,49.79191566602094,,49.78053062502295,49.79191566602094,50.78805533301784,50.78805533301784,50.80085604102351,58.368590416008374,3.6844444444444444,8.57082008299767,,,,,,,,,,,,Participant 7 Siya,001,2023-11-26_15h02.45.031,soloprojectsharanya,2023.2.1,119.84623729264307,2023-11-26 15h03.12.207921 +0530,
Kate Winslow,c,,,0,16,16,10,,,,,58.395301791024394,,58.36881208300474,58.395301791024394,59.37091712502297,59.37091712502297,59.39488487501512,61.51389891601866,1.0133333333333334,3.127347458008444,,,,,,,,,,,,Participant 7 Siya,001,2023-11-26_15h02.45.031,soloprojectsharanya,2023.2.1,119.84623729264307,2023-11-26 15h03.12.207921 +0530,
Emma Stone,cs,,,0,17,17,5,,,,,61.52544008300174,,61.51414462501998,61.52544008300174,62.520687250013,62.520687250013,62.53231250002864,64.98745929100551,1.0133333333333334,3.4554578329843935,,,,,,,,,,,,Participant 7 Siya,001,2023-11-26_15h02.45.031,soloprojectsharanya,2023.2.1,119.84623729264307,2023-11-26 15h03.12.207921 +0530,
Mariah Carey,c,,,0,18,18,15,,,,,64.99870270802057,,64.98768037502305,64.99870270802057,65.99747937501525,65.99747937501525,66.01216216600733,66.78074158300296,1.0133333333333334,1.776340791984694,,,,,,,,,,,,Participant 7 Siya,001,2023-11-26_15h02.45.031,soloprojectsharanya,2023.2.1,119.84623729264307,2023-11-26 15h03.12.207921 +0530,
Rachel Green,cs,,,0,19,19,7,,,,,66.79176954101422,,66.78097625001101,66.79176954101422,67.78845104100765,67.78845104100765,67.80198212500545,68.90262295800494,1.0133333333333334,2.1053285409871023,,,,,,,,,,,,Participant 7 Siya,001,2023-11-26_15h02.45.031,soloprojectsharanya,2023.2.1,119.84623729264307,2023-11-26 15h03.12.207921 +0530,
Allan Carter,un,,,0,20,20,23,,,,,68.91258595802356,,68.9028436250228,68.91258595802356,69.90488245800952,69.90488245800952,69.91616229101783,72.7312661660253,3.982222222222222,3.811096290999558,,,,,,,,,,,,Participant 7 Siya,001,2023-11-26_15h02.45.031,soloprojectsharanya,2023.2.1,119.84623729264307,2023-11-26 15h03.12.207921 +0530,
Stephen King,cs,,,0,21,21,3,,,,,72.74157475001994,,72.7314992500178,72.74157475001994,73.73775983302039,73.73775983302039,73.7492793330166,75.91457395802718,1.0177777777777777,3.162581249984214,,,,,,,,,,,,Participant 7 Siya,001,2023-11-26_15h02.45.031,soloprojectsharanya,2023.2.1,119.84623729264307,2023-11-26 15h03.12.207921 +0530,
daniel carr,un,,,0,22,22,17,,,,,75.92618662500172,,75.91485016600927,75.92618662500172,76.91943495802116,76.91943495802116,76.94589341600658,79.61556250002468,4.955555555555556,3.6807088329805993,,,,,,,,,,,,Participant 7 Siya,001,2023-11-26_15h02.45.031,soloprojectsharanya,2023.2.1,119.84623729264307,2023-11-26 15h03.12.207921 +0530,
John Legend,cs,,,0,23,23,9,,,,,79.62644129100954,,79.61579675000394,79.62644129100954,80.62254416602082,80.62254416602082,80.63421437502257,82.21493166600703,1.0,2.5807302499888465,,,,,,,,,,,,Participant 7 Siya,001,2023-11-26_15h02.45.031,soloprojectsharanya,2023.2.1,119.84623729264307,2023-11-26 15h03.12.207921 +0530,
,,Stone,cwp,,,,,0,0,0,4,90.22723025002051,,,,,,,,,,82.21508037502645,82.22012395801721,90.22723025002051,90.20321166602662,90.21910516600474,91.21294108300935,91.21294108300935,92.52710695800488,y,1.2863758749736007,None,Participant 7 Siya,001,2023-11-26_15h02.45.031,soloprojectsharanya,2023.2.1,119.84623729264307,2023-11-26 15h03.12.207921 +0530,
,,Sniff,cwu,,,,,0,1,1,15,92.5407264160167,,,,,,,,,,,,,,92.52800904100877,93.52149287500652,93.52149287500652,94.75356825001654,y,1.225651500019012,None,Participant 7 Siya,001,2023-11-26_15h02.45.031,soloprojectsharanya,2023.2.1,119.84623729264307,2023-11-26 15h03.12.207921 +0530,
,,Diesel,cwp,,,,,0,2,2,0,94.76559095800621,,,,,,,,,,,,,,94.75415258301655,95.75554825001745,95.75554825001745,96.42146012501325,y,0.6618159999779891,None,Participant 7 Siya,001,2023-11-26_15h02.45.031,soloprojectsharanya,2023.2.1,119.84623729264307,2023-11-26 15h03.12.207921 +0530,
,,laptop,cwu,,,,,0,3,3,14,96.43368341602036,,,,,,,,,,,,,,96.42204341600882,97.42273641601787,97.42273641601787,98.46341891601332,y,1.0326395419833716,None,Participant 7 Siya,001,2023-11-26_15h02.45.031,soloprojectsharanya,2023.2.1,119.84623729264307,2023-11-26 15h03.12.207921 +0530,
,,Green,cwp,,,,,0,4,4,5,98.474285083008,,,,,,,,,,,,,,98.46400475001428,99.45441462501185,99.45441462501185,100.38103195800795,y,0.9173219999938738,None,Participant 7 Siya,001,2023-11-26_15h02.45.031,soloprojectsharanya,2023.2.1,119.84623729264307,2023-11-26 15h03.12.207921 +0530,
,,demical,pw,,,,,0,5,5,19,100.3920477500069,,,,,,,,,,,,,,100.38161054102238,101.38001820800127,101.38001820800127,102.23773737502052,n,0.8563652920129243,None,Participant 7 Siya,001,2023-11-26_15h02.45.031,soloprojectsharanya,2023.2.1,119.84623729264307,2023-11-26 15h03.12.207921 +0530,
,,Cajole,cwu,,,,,0,6,6,10,102.25036500001443,,,,,,,,,,,,,,102.23843241602299,103.23975879102363,103.23975879102363,104.43722637501196,y,1.1961637500207871,None,Participant 7 Siya,001,2023-11-26_15h02.45.031,soloprojectsharanya,2023.2.1,119.84623729264307,2023-11-26 15h03.12.207921 +0530,
,,Legend,cwp,,,,,0,7,7,7,104.44908883300377,,,,,,,,,,,,,,104.43792758299969,105.43697625002824,105.43697625002824,106.13079470800585,y,0.6906675419886597,None,Participant 7 Siya,001,2023-11-26_15h02.45.031,soloprojectsharanya,2023.2.1,119.84623729264307,2023-11-26 15h03.12.207921 +0530,
,,Dispel,cwu,,,,,0,8,8,12,106.1435919580108,,,,,,,,,,,,,,106.13149220802006,107.12206608301494,107.12206608301494,108.07118987501599,n,0.9449450829997659,None,Participant 7 Siya,001,2023-11-26_15h02.45.031,soloprojectsharanya,2023.2.1,119.84623729264307,2023-11-26 15h03.12.207921 +0530,
,,ciphere,pw,,,,,0,9,9,18,108.08291170801385,,,,,,,,,,,,,,108.07190808301675,109.07193929102505,109.07193929102505,110.0305157500261,n,0.9508640840067528,None,Participant 7 Siya,001,2023-11-26_15h02.45.031,soloprojectsharanya,2023.2.1,119.84623729264307,2023-11-26 15h03.12.207921 +0530,
,,fuguil,pw,,,,,0,10,10,22,110.04183729100623,,,,,,,,,,,,,,110.03109316600603,111.02112033302546,111.02112033302546,112.31477037500008,n,1.2866866659896914,None,Participant 7 Siya,001,2023-11-26_15h02.45.031,soloprojectsharanya,2023.2.1,119.84623729264307,2023-11-26 15h03.12.207921 +0530,
,,frambos,pw,,,,,0,11,11,21,112.32677733301534,,,,,,,,,,,,,,112.31548612500774,113.31357537501026,113.31357537501026,114.30359191601747,n,0.986572249996243,None,Participant 7 Siya,001,2023-11-26_15h02.45.031,soloprojectsharanya,2023.2.1,119.84623729264307,2023-11-26 15h03.12.207921 +0530,
,,abary,pw,,,,,0,12,12,17,114.31614462501602,,,,,,,,,,,,,,114.30430091600283,115.30431129102362,115.30431129102362,116.11424520800938,n,0.8055999169882853,None,Participant 7 Siya,001,2023-11-26_15h02.45.031,soloprojectsharanya,2023.2.1,119.84623729264307,2023-11-26 15h03.12.207921 +0530,
,,Callous,cwu,,,,,0,13,13,9,116.12546358301188,,,,,,,,,,,,,,116.11493337500724,117.10568029101705,117.10568029101705,118.36362516600639,y,1.2512187079992145,None,Participant 7 Siya,001,2023-11-26_15h02.45.031,soloprojectsharanya,2023.2.1,119.84623729264307,2023-11-26 15h03.12.207921 +0530,
,,Cruise,cwp,,,,,0,14,14,3,118.37514600000577,,,,,,,,,,,,,,118.36424229101976,119.35605962501722,119.35605962501722,120.4369585000095,y,1.076799915987067,None,Participant 7 Siya,001,2023-11-26_15h02.45.031,soloprojectsharanya,2023.2.1,119.84623729264307,2023-11-26 15h03.12.207921 +0530,
,,biled,pw,,,,,0,15,15,30,120.44892241602065,,,,,,,,,,,,,,120.43754629101022,121.43835283300723,121.43835283300723,122.03682179099997,n,0.5943670000124257,None,Participant 7 Siya,001,2023-11-26_15h02.45.031,soloprojectsharanya,2023.2.1,119.84623729264307,2023-11-26 15h03.12.207921 +0530,
,,Aquity,cwu,,,,,0,16,16,11,122.04957850000937,,,,,,,,,,,,,,122.0373991660017,123.03890833302285,123.03890833302285,123.89745195800788,n,0.8506144999992102,None,Participant 7 Siya,001,2023-11-26_15h02.45.031,soloprojectsharanya,2023.2.1,119.84623729264307,2023-11-26 15h03.12.207921 +0530,
,,Bullock ,cwu,,,,,0,17,17,8,123.9087219160283,,,,,,,,,,,,,,123.89815700001782,124.88911337501486,124.88911337501486,125.903255791025,y,1.0099348330113571,None,Participant 7 Siya,001,2023-11-26_15h02.45.031,soloprojectsharanya,2023.2.1,119.84623729264307,2023-11-26 15h03.12.207921 +0530,
,,poing,pw,,,,,0,18,18,28,125.93014212502749,,,,,,,,,,,,,,125.90382220802712,126.89638345802086,126.89638345802086,128.0209088330157,n,1.118101083993679,None,Participant 7 Siya,001,2023-11-26_15h02.45.031,soloprojectsharanya,2023.2.1,119.84623729264307,2023-11-26 15h03.12.207921 +0530,
,,contrivial,pw,,,,,0,19,19,31,128.03428770802566,,,,,,,,,,,,,,128.02148237501387,129.0217112910177,129.0217112910177,129.88141500001075,n,0.8550702500215266,None,Participant 7 Siya,001,2023-11-26_15h02.45.031,soloprojectsharanya,2023.2.1,119.84623729264307,2023-11-26 15h03.12.207921 +0530,
,,King,cwp,,,,,0,20,20,2,129.89224087502225,,,,,,,,,,,,,,129.88200095802313,130.88072025001748,130.88072025001748,131.46991508302744,y,0.5847582500136923,None,Participant 7 Siya,001,2023-11-26_15h02.45.031,soloprojectsharanya,2023.2.1,119.84623729264307,2023-11-26 15h03.12.207921 +0530,
,,gesting,pw,,,,,0,21,21,23,131.48096858302597,,,,,,,,,,,,,,131.47049887501635,132.4712475000124,132.4712475000124,133.33641029102728,n,0.8607983750116546,None,Participant 7 Siya,001,2023-11-26_15h02.45.031,soloprojectsharanya,2023.2.1,119.84623729264307,2023-11-26 15h03.12.207921 +0530,
,,infrate,pw,,,,,0,22,22,26,133.34980612501386,,,,,,,,,,,,,,133.33698695802013,134.32975225002156,134.32975225002156,135.02211266601807,n,0.6910329580132384,None,Participant 7 Siya,001,2023-11-26_15h02.45.031,soloprojectsharanya,2023.2.1,119.84623729264307,2023-11-26 15h03.12.207921 +0530,
,,Bush,cwp,,,,,0,23,23,6,135.0342474160134,,,,,,,,,,,,,,135.0227446660283,136.02212395801325,136.02212395801325,136.73157683300087,y,0.7055653330171481,None,Participant 7 Siya,001,2023-11-26_15h02.45.031,soloprojectsharanya,2023.2.1,119.84623729264307,2023-11-26 15h03.12.207921 +0530,
,,gweet,pw,,,,,0,24,24,24,136.7424801250163,,,,,,,,,,,,,,136.73215766600333,137.72302929102443,137.72302929102443,138.49744966599974,n,0.7678142919903621,None,Participant 7 Siya,001,2023-11-26_15h02.45.031,soloprojectsharanya,2023.2.1,119.84623729264307,2023-11-26 15h03.12.207921 +0530,
,,Spouse,cwu,,,,,0,25,25,13,138.50825554100447,,,,,,,,,,,,,,138.49808237500838,139.48887483301223,139.48887483301223,140.6551322080195,y,1.1643494169984479,None,Participant 7 Siya,001,2023-11-26_15h02.45.031,soloprojectsharanya,2023.2.1,119.84623729264307,2023-11-26 15h03.12.207921 +0530,
,,banc,pw,,,,,0,26,26,27,140.66632787502022,,,,,,,,,,,,,,140.65583654100192,141.65660366602242,141.65660366602242,142.20518033302506,n,0.5471591250097845,None,Participant 7 Siya,001,2023-11-26_15h02.45.031,soloprojectsharanya,2023.2.1,119.84623729264307,2023-11-26 15h03.12.207921 +0530,
,,thrade,pw,,,,,0,27,27,16,142.21671262502787,,,,,,,,,,,,,,142.205871416023,143.20617266601766,143.20617266601766,143.88868245802587,n,0.6811560839996673,None,Participant 7 Siya,001,2023-11-26_15h02.45.031,soloprojectsharanya,2023.2.1,119.84623729264307,2023-11-26 15h03.12.207921 +0530,
,,hoory,pw,,,,,0,28,28,29,143.90171525001642,,,,,,,,,,,,,,143.8893766660185,144.8890162910102,144.8890162910102,145.68169083300745,n,0.7819300839910284,None,Participant 7 Siya,001,2023-11-26_15h02.45.031,soloprojectsharanya,2023.2.1,119.84623729264307,2023-11-26 15h03.12.207921 +0530,
,,exsess,pw,,,,,0,29,29,20,145.69487375000608,,,,,,,,,,,,,,145.6822807500139,146.67305683300947,146.67305683300947,147.4153145410237,n,0.7317991660092957,None,Participant 7 Siya,001,2023-11-26_15h02.45.031,soloprojectsharanya,2023.2.1,119.84623729264307,2023-11-26 15h03.12.207921 +0530,
,,hawyk,pw,,,,,0,30,30,25,147.42658195801778,,,,,,,,,,,,,,147.4160149160016,148.4141155410034,148.4141155410034,149.35559904100955,n,0.9382501250074711,None,Participant 7 Siya,001,2023-11-26_15h02.45.031,soloprojectsharanya,2023.2.1,119.84623729264307,2023-11-26 15h03.12.207921 +0530,
,,Cook,cwp,,,,,0,31,31,1,149.36812312502298,,,,,,,,,,,,,,149.35617929100408,150.35624137500417,150.35624137500417,151.00436700001592,y,0.644424458994763,None,Participant 7 Siya,001,2023-11-26_15h02.45.031,soloprojectsharanya,2023.2.1,119.84623729264307,2023-11-26 15h03.12.207921 +0530,
